[{"rt":726972,"response":{"Q0":"05"},"task":"subject_id","trial_type":"survey-text","trial_index":0,"time_elapsed":726981,"internal_node_id":"0.0-0.0"},{"rt":10680,"stimulus":"<div style=\"width:600px;\">\n        <p>A series of colored circles will appear. Most of the circles will be blue, but some will be orange and some will be purple.</p>\n        <p>Your task is to count the total number of orange and purple circles.</p>\n        <p>You do not need to keep track of the number of orange and purple separately. For example, if you have seen 3 purple circles and 1 orange circle you only need to report the number 4.</p>\n        <p>You'll complete 3 rounds, and each round will take about 3 minutes.</p>\n        <p>When you are ready for the first round, press the spacebar.</p>\n        </div>","response":" ","trial_type":"html-keyboard-response","trial_index":1,"time_elapsed":737662,"internal_node_id":"0.0-1.0"},{"rt":null,"stimulus":"<div style=\"width:400px; height: 400px; border-radius: 400px; background-color: #0000ff;\"></div>","response":null,"color":"#0000ff","task":"circle","trial_type":"html-keyboard-response","trial_index":2,"time_elapsed":739037,"internal_node_id":"0.0-2.0-0.0"},{"rt":null,"stimulus":"<div style=\"width:400px; height: 400px; border-radius: 400px; background-color: #0000ff;\"></div>","response":null,"color":"#0000ff","task":"circle","trial_type":"html-keyboard-response","trial_index":3,"time_elapsed":739763,"internal_node_id":"0.0-2.0-0.1"},{"rt":null,"stimulus":"<div style=\"width:400px; height: 400px; border-radius: 400px; background-color: #0000ff;\"></div>","response":null,"color":"#0000ff","task":"circle","trial_type":"html-keyboard-response","trial_index":4,"time_elapsed":740491,"internal_node_id":"0.0-2.0-0.2"},{"rt":null,"stimulus":"<div style=\"width:400px; height: 400px; border-radius: 400px; background-color: #0000ff;\"></div>","response":null,"color":"#0000ff","task":"circle","trial_type":"html-keyboard-response","trial_index":5,"time_elapsed":741217,"internal_node_id":"0.0-2.0-0.3"},{"rt":null,"stimulus":"<div style=\"width:400px; height: 400px; border-radius: 400px; background-color: #8000ff;\"></div>","response":null,"color":"#8000ff","task":"circle","trial_type":"html-keyboard-response","trial_index":6,"time_elapsed":741943,"internal_node_id":"0.0-2.0-0.4"},{"rt":null,"stimulus":"<div style=\"width:400px; height: 400px; border-radius: 400px; background-color: #0000ff;\"></div>","response":null,"color":"#0000ff","task":"circle","trial_type":"html-keyboard-response","trial_index":7,"time_elapsed":742669,"internal_node_id":"0.0-2.0-0.5"},{"rt":null,"stimulus":"<div style=\"width:400px; height: 400px; border-radius: 400px; background-color: #0000ff;\"></div>","response":null,"color":"#0000ff","task":"circle","trial_type":"html-keyboard-response","trial_index":8,"time_elapsed":743392,"internal_node_id":"0.0-2.0-0.6"},{"rt":null,"stimulus":"<div style=\"width:400px; height: 400px; border-radius: 400px; background-color: #0000ff;\"></div>","response":null,"color":"#0000ff","task":"circle","trial_type":"html-keyboard-response","trial_index":9,"time_elapsed":744116,"internal_node_id":"0.0-2.0-0.7"},{"rt":null,"stimulus":"<div style=\"width:400px; height: 400px; border-radius: 400px; background-color: #0000ff;\"></div>","response":null,"color":"#0000ff","task":"circle","trial_type":"html-keyboard-response","trial_index":10,"time_elapsed":744842,"internal_node_id":"0.0-2.0-0.8"},{"rt":null,"stimulus":"<div style=\"width:400px; height: 400px; border-radius: 400px; background-color: #ffaa00;\"></div>","response":null,"color":"#ffaa00","task":"circle","trial_type":"html-keyboard-response","trial_index":11,"time_elapsed":745566,"internal_node_id":"0.0-2.0-0.9"},{"rt":null,"stimulus":"<div style=\"width:400px; height: 400px; border-radius: 400px; background-color: #0000ff;\"></div>","response":null,"color":"#0000ff","task":"circle","trial_type":"html-keyboard-response","trial_index":12,"time_elapsed":746293,"internal_node_id":"0.0-2.0-0.10"},{"rt":null,"stimulus":"<div style=\"width:400px; height: 400px; border-radius: 400px; background-color: #0000ff;\"></div>","response":null,"color":"#0000ff","task":"circle","trial_type":"html-keyboard-response","trial_index":13,"time_elapsed":747020,"internal_node_id":"0.0-2.0-0.11"},{"rt":null,"stimulus":"<div style=\"width:400px; height: 400px; border-radius: 400px; background-color: #0000ff;\"></div>","response":null,"color":"#0000ff","task":"circle","trial_type":"html-keyboard-response","trial_index":14,"time_elapsed":747745,"internal_node_id":"0.0-2.0-0.12"},{"rt":null,"stimulus":"<div style=\"width:400px; height: 400px; border-radius: 400px; background-color: #0000ff;\"></div>","response":null,"color":"#0000ff","task":"circle","trial_type":"html-keyboard-response","trial_index":15,"time_elapsed":748470,"internal_node_id":"0.0-2.0-0.13"},{"rt":null,"stimulus":"<div style=\"width:400px; height: 400px; border-radius: 400px; background-color: #0000ff;\"></div>","response":null,"color":"#0000ff","task":"circle","trial_type":"html-keyboard-response","trial_index":16,"time_elapsed":749193,"internal_node_id":"0.0-2.0-0.14"},{"rt":null,"stimulus":"<div style=\"width:400px; height: 400px; border-radius: 400px; background-color: #0000ff;\"></div>","response":null,"color":"#0000ff","task":"circle","trial_type":"html-keyboard-response","trial_index":17,"time_elapsed":749918,"internal_node_id":"0.0-2.0-0.15"},{"rt":null,"stimulus":"<div style=\"width:400px; height: 400px; border-radius: 400px; background-color: #0000ff;\"></div>","response":null,"color":"#0000ff","task":"circle","trial_type":"html-keyboard-response","trial_index":18,"time_elapsed":750643,"internal_node_id":"0.0-2.0-0.16"},{"rt":null,"stimulus":"<div style=\"width:400px; height: 400px; border-radius: 400px; background-color: #0000ff;\"></div>","response":null,"color":"#0000ff","task":"circle","trial_type":"html-keyboard-response","trial_index":19,"time_elapsed":751369,"internal_node_id":"0.0-2.0-0.17"},{"rt":null,"stimulus":"<div style=\"width:400px; height: 400px; border-radius: 400px; background-color: #ffaa00;\"></div>","response":null,"color":"#ffaa00","task":"circle","trial_type":"html-keyboard-response","trial_index":20,"time_elapsed":752082,"internal_node_id":"0.0-2.0-0.18"},{"rt":null,"stimulus":"<div style=\"width:400px; height: 400px; border-radius: 400px; background-color: #8000ff;\"></div>","response":null,"color":"#8000ff","task":"circle","trial_type":"html-keyboard-response","trial_index":21,"time_elapsed":752809,"internal_node_id":"0.0-2.0-0.19"},{"rt":null,"stimulus":"<div style=\"width:400px; height: 400px; border-radius: 400px; background-color: #0000ff;\"></div>","response":null,"color":"#0000ff","task":"circle","trial_type":"html-keyboard-response","trial_index":22,"time_elapsed":753534,"internal_node_id":"0.0-2.0-0.20"},{"rt":null,"stimulus":"<div style=\"width:400px; height: 400px; border-radius: 400px; background-color: #0000ff;\"></div>","response":null,"color":"#0000ff","task":"circle","trial_type":"html-keyboard-response","trial_index":23,"time_elapsed":754260,"internal_node_id":"0.0-2.0-0.21"},{"rt":null,"stimulus":"<div style=\"width:400px; height: 400px; border-radius: 400px; background-color: #0000ff;\"></div>","response":null,"color":"#0000ff","task":"circle","trial_type":"html-keyboard-response","trial_index":24,"time_elapsed":754985,"internal_node_id":"0.0-2.0-0.22"},{"rt":null,"stimulus":"<div style=\"width:400px; height: 400px; border-radius: 400px; background-color: #8000ff;\"></div>","response":null,"color":"#8000ff","task":"circle","trial_type":"html-keyboard-response","trial_index":25,"time_elapsed":755710,"internal_node_id":"0.0-2.0-0.23"},{"rt":null,"stimulus":"<div style=\"width:400px; height: 400px; border-radius: 400px; background-color: #0000ff;\"></div>","response":null,"color":"#0000ff","task":"circle","trial_type":"html-keyboard-response","trial_index":26,"time_elapsed":756433,"internal_node_id":"0.0-2.0-0.24"},{"rt":null,"stimulus":"<div style=\"width:400px; height: 400px; border-radius: 400px; background-color: #0000ff;\"></div>","response":null,"color":"#0000ff","task":"circle","trial_type":"html-keyboard-response","trial_index":27,"time_elapsed":757158,"internal_node_id":"0.0-2.0-0.25"},{"rt":null,"stimulus":"<div style=\"width:400px; height: 400px; border-radius: 400px; background-color: #0000ff;\"></div>","response":null,"color":"#0000ff","task":"circle","trial_type":"html-keyboard-response","trial_index":28,"time_elapsed":757885,"internal_node_id":"0.0-2.0-0.26"},{"rt":null,"stimulus":"<div style=\"width:400px; height: 400px; border-radius: 400px; background-color: #0000ff;\"></div>","response":null,"color":"#0000ff","task":"circle","trial_type":"html-keyboard-response","trial_index":29,"time_elapsed":758606,"internal_node_id":"0.0-2.0-0.27"},{"rt":null,"stimulus":"<div style=\"width:400px; height: 400px; border-radius: 400px; background-color: #ffaa00;\"></div>","response":null,"color":"#ffaa00","task":"circle","trial_type":"html-keyboard-response","trial_index":30,"time_elapsed":759332,"internal_node_id":"0.0-2.0-0.28"},{"rt":null,"stimulus":"<div style=\"width:400px; height: 400px; border-radius: 400px; background-color: #0000ff;\"></div>","response":null,"color":"#0000ff","task":"circle","trial_type":"html-keyboard-response","trial_index":31,"time_elapsed":760055,"internal_node_id":"0.0-2.0-0.29"},{"rt":null,"stimulus":"<div style=\"width:400px; height: 400px; border-radius: 400px; background-color: #0000ff;\"></div>","response":null,"color":"#0000ff","task":"circle","trial_type":"html-keyboard-response","trial_index":32,"time_elapsed":760781,"internal_node_id":"0.0-2.0-0.30"},{"rt":null,"stimulus":"<div style=\"width:400px; height: 400px; border-radius: 400px; background-color: #0000ff;\"></div>","response":null,"color":"#0000ff","task":"circle","trial_type":"html-keyboard-response","trial_index":33,"time_elapsed":761505,"internal_node_id":"0.0-2.0-0.31"},{"rt":null,"stimulus":"<div style=\"width:400px; height: 400px; border-radius: 400px; background-color: #0000ff;\"></div>","response":null,"color":"#0000ff","task":"circle","trial_type":"html-keyboard-response","trial_index":34,"time_elapsed":762227,"internal_node_id":"0.0-2.0-0.32"},{"rt":null,"stimulus":"<div style=\"width:400px; height: 400px; border-radius: 400px; background-color: #0000ff;\"></div>","response":null,"color":"#0000ff","task":"circle","trial_type":"html-keyboard-response","trial_index":35,"time_elapsed":762951,"internal_node_id":"0.0-2.0-0.33"},{"rt":null,"stimulus":"<div style=\"width:400px; height: 400px; border-radius: 400px; background-color: #0000ff;\"></div>","response":null,"color":"#0000ff","task":"circle","trial_type":"html-keyboard-response","trial_index":36,"time_elapsed":763672,"internal_node_id":"0.0-2.0-0.34"},{"rt":null,"stimulus":"<div style=\"width:400px; height: 400px; border-radius: 400px; background-color: #0000ff;\"></div>","response":null,"color":"#0000ff","task":"circle","trial_type":"html-keyboard-response","trial_index":37,"time_elapsed":764396,"internal_node_id":"0.0-2.0-0.35"},{"rt":null,"stimulus":"<div style=\"width:400px; height: 400px; border-radius: 400px; background-color: #0000ff;\"></div>","response":null,"color":"#0000ff","task":"circle","trial_type":"html-keyboard-response","trial_index":38,"time_elapsed":765125,"internal_node_id":"0.0-2.0-0.36"},{"rt":null,"stimulus":"<div style=\"width:400px; height: 400px; border-radius: 400px; background-color: #ffaa00;\"></div>","response":null,"color":"#ffaa00","task":"circle","trial_type":"html-keyboard-response","trial_index":39,"time_elapsed":765847,"internal_node_id":"0.0-2.0-0.37"},{"rt":null,"stimulus":"<div style=\"width:400px; height: 400px; border-radius: 400px; background-color: #8000ff;\"></div>","response":null,"color":"#8000ff","task":"circle","trial_type":"html-keyboard-response","trial_index":40,"time_elapsed":766569,"internal_node_id":"0.0-2.0-0.38"},{"rt":null,"stimulus":"<div style=\"width:400px; height: 400px; border-radius: 400px; background-color: #0000ff;\"></div>","response":null,"color":"#0000ff","task":"circle","trial_type":"html-keyboard-response","trial_index":41,"time_elapsed":767292,"internal_node_id":"0.0-2.0-0.39"},{"rt":null,"stimulus":"<div style=\"width:400px; height: 400px; border-radius: 400px; background-color: #0000ff;\"></div>","response":null,"color":"#0000ff","task":"circle","trial_type":"html-keyboard-response","trial_index":42,"time_elapsed":768015,"internal_node_id":"0.0-2.0-0.40"},{"rt":null,"stimulus":"<div style=\"width:400px; height: 400px; border-radius: 400px; background-color: #0000ff;\"></div>","response":null,"color":"#0000ff","task":"circle","trial_type":"html-keyboard-response","trial_index":43,"time_elapsed":768738,"internal_node_id":"0.0-2.0-0.41"},{"rt":null,"stimulus":"<div style=\"width:400px; height: 400px; border-radius: 400px; background-color: #0000ff;\"></div>","response":null,"color":"#0000ff","task":"circle","trial_type":"html-keyboard-response","trial_index":44,"time_elapsed":769460,"internal_node_id":"0.0-2.0-0.42"},{"rt":null,"stimulus":"<div style=\"width:400px; height: 400px; border-radius: 400px; background-color: #0000ff;\"></div>","response":null,"color":"#0000ff","task":"circle","trial_type":"html-keyboard-response","trial_index":45,"time_elapsed":770178,"internal_node_id":"0.0-2.0-0.43"},{"rt":null,"stimulus":"<div style=\"width:400px; height: 400px; border-radius: 400px; background-color: #0000ff;\"></div>","response":null,"color":"#0000ff","task":"circle","trial_type":"html-keyboard-response","trial_index":46,"time_elapsed":770901,"internal_node_id":"0.0-2.0-0.44"},{"rt":null,"stimulus":"<div style=\"width:400px; height: 400px; border-radius: 400px; background-color: #8000ff;\"></div>","response":null,"color":"#8000ff","task":"circle","trial_type":"html-keyboard-response","trial_index":47,"time_elapsed":771620,"internal_node_id":"0.0-2.0-0.45"},{"rt":null,"stimulus":"<div style=\"width:400px; height: 400px; border-radius: 400px; background-color: #0000ff;\"></div>","response":null,"color":"#0000ff","task":"circle","trial_type":"html-keyboard-response","trial_index":48,"time_elapsed":772338,"internal_node_id":"0.0-2.0-0.46"},{"rt":null,"stimulus":"<div style=\"width:400px; height: 400px; border-radius: 400px; background-color: #ffaa00;\"></div>","response":null,"color":"#ffaa00","task":"circle","trial_type":"html-keyboard-response","trial_index":49,"time_elapsed":773062,"internal_node_id":"0.0-2.0-0.47"},{"rt":null,"stimulus":"<div style=\"width:400px; height: 400px; border-radius: 400px; background-color: #0000ff;\"></div>","response":null,"color":"#0000ff","task":"circle","trial_type":"html-keyboard-response","trial_index":50,"time_elapsed":773778,"internal_node_id":"0.0-2.0-0.48"},{"rt":null,"stimulus":"<div style=\"width:400px; height: 400px; border-radius: 400px; background-color: #0000ff;\"></div>","response":null,"color":"#0000ff","task":"circle","trial_type":"html-keyboard-response","trial_index":51,"time_elapsed":774493,"internal_node_id":"0.0-2.0-0.49"},{"rt":null,"stimulus":"<div style=\"width:400px; height: 400px; border-radius: 400px; background-color: #ffaa00;\"></div>","response":null,"color":"#ffaa00","task":"circle","trial_type":"html-keyboard-response","trial_index":52,"time_elapsed":775213,"internal_node_id":"0.0-2.0-0.50"},{"rt":null,"stimulus":"<div style=\"width:400px; height: 400px; border-radius: 400px; background-color: #8000ff;\"></div>","response":null,"color":"#8000ff","task":"circle","trial_type":"html-keyboard-response","trial_index":53,"time_elapsed":775935,"internal_node_id":"0.0-2.0-0.51"},{"rt":null,"stimulus":"<div style=\"width:400px; height: 400px; border-radius: 400px; background-color: #0000ff;\"></div>","response":null,"color":"#0000ff","task":"circle","trial_type":"html-keyboard-response","trial_index":54,"time_elapsed":776657,"internal_node_id":"0.0-2.0-0.52"},{"rt":null,"stimulus":"<div style=\"width:400px; height: 400px; border-radius: 400px; background-color: #0000ff;\"></div>","response":null,"color":"#0000ff","task":"circle","trial_type":"html-keyboard-response","trial_index":55,"time_elapsed":777376,"internal_node_id":"0.0-2.0-0.53"},{"rt":null,"stimulus":"<div style=\"width:400px; height: 400px; border-radius: 400px; background-color: #0000ff;\"></div>","response":null,"color":"#0000ff","task":"circle","trial_type":"html-keyboard-response","trial_index":56,"time_elapsed":778099,"internal_node_id":"0.0-2.0-0.54"},{"rt":null,"stimulus":"<div style=\"width:400px; height: 400px; border-radius: 400px; background-color: #0000ff;\"></div>","response":null,"color":"#0000ff","task":"circle","trial_type":"html-keyboard-response","trial_index":57,"time_elapsed":778820,"internal_node_id":"0.0-2.0-0.55"},{"rt":null,"stimulus":"<div style=\"width:400px; height: 400px; border-radius: 400px; background-color: #0000ff;\"></div>","response":null,"color":"#0000ff","task":"circle","trial_type":"html-keyboard-response","trial_index":58,"time_elapsed":779543,"internal_node_id":"0.0-2.0-0.56"},{"rt":null,"stimulus":"<div style=\"width:400px; height: 400px; border-radius: 400px; background-color: #0000ff;\"></div>","response":null,"color":"#0000ff","task":"circle","trial_type":"html-keyboard-response","trial_index":59,"time_elapsed":780267,"internal_node_id":"0.0-2.0-0.57"},{"rt":null,"stimulus":"<div style=\"width:400px; height: 400px; border-radius: 400px; background-color: #0000ff;\"></div>","response":null,"color":"#0000ff","task":"circle","trial_type":"html-keyboard-response","trial_index":60,"time_elapsed":780987,"internal_node_id":"0.0-2.0-0.58"},{"rt":null,"stimulus":"<div style=\"width:400px; height: 400px; border-radius: 400px; background-color: #0000ff;\"></div>","response":null,"color":"#0000ff","task":"circle","trial_type":"html-keyboard-response","trial_index":61,"time_elapsed":781708,"internal_node_id":"0.0-2.0-0.59"},{"rt":null,"stimulus":"<div style=\"width:400px; height: 400px; border-radius: 400px; background-color: #0000ff;\"></div>","response":null,"color":"#0000ff","task":"circle","trial_type":"html-keyboard-response","trial_index":62,"time_elapsed":782425,"internal_node_id":"0.0-2.0-0.60"},{"rt":null,"stimulus":"<div style=\"width:400px; height: 400px; border-radius: 400px; background-color: #0000ff;\"></div>","response":null,"color":"#0000ff","task":"circle","trial_type":"html-keyboard-response","trial_index":63,"time_elapsed":783151,"internal_node_id":"0.0-2.0-0.61"},{"rt":null,"stimulus":"<div style=\"width:400px; height: 400px; border-radius: 400px; background-color: #0000ff;\"></div>","response":null,"color":"#0000ff","task":"circle","trial_type":"html-keyboard-response","trial_index":64,"time_elapsed":783873,"internal_node_id":"0.0-2.0-0.62"},{"rt":null,"stimulus":"<div style=\"width:400px; height: 400px; border-radius: 400px; background-color: #8000ff;\"></div>","response":null,"color":"#8000ff","task":"circle","trial_type":"html-keyboard-response","trial_index":65,"time_elapsed":784597,"internal_node_id":"0.0-2.0-0.63"},{"rt":null,"stimulus":"<div style=\"width:400px; height: 400px; border-radius: 400px; background-color: #0000ff;\"></div>","response":null,"color":"#0000ff","task":"circle","trial_type":"html-keyboard-response","trial_index":66,"time_elapsed":785320,"internal_node_id":"0.0-2.0-0.64"},{"rt":null,"stimulus":"<div style=\"width:400px; height: 400px; border-radius: 400px; background-color: #0000ff;\"></div>","response":null,"color":"#0000ff","task":"circle","trial_type":"html-keyboard-response","trial_index":67,"time_elapsed":786046,"internal_node_id":"0.0-2.0-0.65"},{"rt":null,"stimulus":"<div style=\"width:400px; height: 400px; border-radius: 400px; background-color: #ffaa00;\"></div>","response":null,"color":"#ffaa00","task":"circle","trial_type":"html-keyboard-response","trial_index":68,"time_elapsed":786771,"internal_node_id":"0.0-2.0-0.66"},{"rt":null,"stimulus":"<div style=\"width:400px; height: 400px; border-radius: 400px; background-color: #0000ff;\"></div>","response":null,"color":"#0000ff","task":"circle","trial_type":"html-keyboard-response","trial_index":69,"time_elapsed":787491,"internal_node_id":"0.0-2.0-0.67"},{"rt":null,"stimulus":"<div style=\"width:400px; height: 400px; border-radius: 400px; background-color: #0000ff;\"></div>","response":null,"color":"#0000ff","task":"circle","trial_type":"html-keyboard-response","trial_index":70,"time_elapsed":788215,"internal_node_id":"0.0-2.0-0.68"},{"rt":null,"stimulus":"<div style=\"width:400px; height: 400px; border-radius: 400px; background-color: #0000ff;\"></div>","response":null,"color":"#0000ff","task":"circle","trial_type":"html-keyboard-response","trial_index":71,"time_elapsed":788941,"internal_node_id":"0.0-2.0-0.69"},{"rt":null,"stimulus":"<div style=\"width:400px; height: 400px; border-radius: 400px; background-color: #0000ff;\"></div>","response":null,"color":"#0000ff","task":"circle","trial_type":"html-keyboard-response","trial_index":72,"time_elapsed":789660,"internal_node_id":"0.0-2.0-0.70"},{"rt":null,"stimulus":"<div style=\"width:400px; height: 400px; border-radius: 400px; background-color: #0000ff;\"></div>","response":null,"color":"#0000ff","task":"circle","trial_type":"html-keyboard-response","trial_index":73,"time_elapsed":790385,"internal_node_id":"0.0-2.0-0.71"},{"rt":null,"stimulus":"<div style=\"width:400px; height: 400px; border-radius: 400px; background-color: #0000ff;\"></div>","response":null,"color":"#0000ff","task":"circle","trial_type":"html-keyboard-response","trial_index":74,"time_elapsed":791114,"internal_node_id":"0.0-2.0-0.72"},{"rt":null,"stimulus":"<div style=\"width:400px; height: 400px; border-radius: 400px; background-color: #0000ff;\"></div>","response":null,"color":"#0000ff","task":"circle","trial_type":"html-keyboard-response","trial_index":75,"time_elapsed":791838,"internal_node_id":"0.0-2.0-0.73"},{"rt":null,"stimulus":"<div style=\"width:400px; height: 400px; border-radius: 400px; background-color: #0000ff;\"></div>","response":null,"color":"#0000ff","task":"circle","trial_type":"html-keyboard-response","trial_index":76,"time_elapsed":792563,"internal_node_id":"0.0-2.0-0.74"},{"rt":null,"stimulus":"<div style=\"width:400px; height: 400px; border-radius: 400px; background-color: #0000ff;\"></div>","response":null,"color":"#0000ff","task":"circle","trial_type":"html-keyboard-response","trial_index":77,"time_elapsed":793288,"internal_node_id":"0.0-2.0-0.75"},{"rt":null,"stimulus":"<div style=\"width:400px; height: 400px; border-radius: 400px; background-color: #0000ff;\"></div>","response":null,"color":"#0000ff","task":"circle","trial_type":"html-keyboard-response","trial_index":78,"time_elapsed":794012,"internal_node_id":"0.0-2.0-0.76"},{"rt":null,"stimulus":"<div style=\"width:400px; height: 400px; border-radius: 400px; background-color: #ffaa00;\"></div>","response":null,"color":"#ffaa00","task":"circle","trial_type":"html-keyboard-response","trial_index":79,"time_elapsed":794736,"internal_node_id":"0.0-2.0-0.77"},{"rt":null,"stimulus":"<div style=\"width:400px; height: 400px; border-radius: 400px; background-color: #8000ff;\"></div>","response":null,"color":"#8000ff","task":"circle","trial_type":"html-keyboard-response","trial_index":80,"time_elapsed":795458,"internal_node_id":"0.0-2.0-0.78"},{"rt":null,"stimulus":"<div style=\"width:400px; height: 400px; border-radius: 400px; background-color: #0000ff;\"></div>","response":null,"color":"#0000ff","task":"circle","trial_type":"html-keyboard-response","trial_index":81,"time_elapsed":796180,"internal_node_id":"0.0-2.0-0.79"},{"rt":null,"stimulus":"<div style=\"width:400px; height: 400px; border-radius: 400px; background-color: #0000ff;\"></div>","response":null,"color":"#0000ff","task":"circle","trial_type":"html-keyboard-response","trial_index":82,"time_elapsed":796906,"internal_node_id":"0.0-2.0-0.80"},{"rt":null,"stimulus":"<div style=\"width:400px; height: 400px; border-radius: 400px; background-color: #0000ff;\"></div>","response":null,"color":"#0000ff","task":"circle","trial_type":"html-keyboard-response","trial_index":83,"time_elapsed":797629,"internal_node_id":"0.0-2.0-0.81"},{"rt":null,"stimulus":"<div style=\"width:400px; height: 400px; border-radius: 400px; background-color: #0000ff;\"></div>","response":null,"color":"#0000ff","task":"circle","trial_type":"html-keyboard-response","trial_index":84,"time_elapsed":798354,"internal_node_id":"0.0-2.0-0.82"},{"rt":null,"stimulus":"<div style=\"width:400px; height: 400px; border-radius: 400px; background-color: #0000ff;\"></div>","response":null,"color":"#0000ff","task":"circle","trial_type":"html-keyboard-response","trial_index":85,"time_elapsed":799081,"internal_node_id":"0.0-2.0-0.83"},{"rt":null,"stimulus":"<div style=\"width:400px; height: 400px; border-radius: 400px; background-color: #ffaa00;\"></div>","response":null,"color":"#ffaa00","task":"circle","trial_type":"html-keyboard-response","trial_index":86,"time_elapsed":799808,"internal_node_id":"0.0-2.0-0.84"},{"rt":null,"stimulus":"<div style=\"width:400px; height: 400px; border-radius: 400px; background-color: #0000ff;\"></div>","response":null,"color":"#0000ff","task":"circle","trial_type":"html-keyboard-response","trial_index":87,"time_elapsed":800524,"internal_node_id":"0.0-2.0-0.85"},{"rt":null,"stimulus":"<div style=\"width:400px; height: 400px; border-radius: 400px; background-color: #0000ff;\"></div>","response":null,"color":"#0000ff","task":"circle","trial_type":"html-keyboard-response","trial_index":88,"time_elapsed":801250,"internal_node_id":"0.0-2.0-0.86"},{"rt":null,"stimulus":"<div style=\"width:400px; height: 400px; border-radius: 400px; background-color: #8000ff;\"></div>","response":null,"color":"#8000ff","task":"circle","trial_type":"html-keyboard-response","trial_index":89,"time_elapsed":801978,"internal_node_id":"0.0-2.0-0.87"},{"rt":null,"stimulus":"<div style=\"width:400px; height: 400px; border-radius: 400px; background-color: #0000ff;\"></div>","response":null,"color":"#0000ff","task":"circle","trial_type":"html-keyboard-response","trial_index":90,"time_elapsed":802701,"internal_node_id":"0.0-2.0-0.88"},{"rt":null,"stimulus":"<div style=\"width:400px; height: 400px; border-radius: 400px; background-color: #0000ff;\"></div>","response":null,"color":"#0000ff","task":"circle","trial_type":"html-keyboard-response","trial_index":91,"time_elapsed":803424,"internal_node_id":"0.0-2.0-0.89"},{"rt":null,"stimulus":"<div style=\"width:400px; height: 400px; border-radius: 400px; background-color: #0000ff;\"></div>","response":null,"color":"#0000ff","task":"circle","trial_type":"html-keyboard-response","trial_index":92,"time_elapsed":804147,"internal_node_id":"0.0-2.0-0.90"},{"rt":null,"stimulus":"<div style=\"width:400px; height: 400px; border-radius: 400px; background-color: #ffaa00;\"></div>","response":null,"color":"#ffaa00","task":"circle","trial_type":"html-keyboard-response","trial_index":93,"time_elapsed":804870,"internal_node_id":"0.0-2.0-0.91"},{"rt":null,"stimulus":"<div style=\"width:400px; height: 400px; border-radius: 400px; background-color: #0000ff;\"></div>","response":null,"color":"#0000ff","task":"circle","trial_type":"html-keyboard-response","trial_index":94,"time_elapsed":805597,"internal_node_id":"0.0-2.0-0.92"},{"rt":null,"stimulus":"<div style=\"width:400px; height: 400px; border-radius: 400px; background-color: #0000ff;\"></div>","response":null,"color":"#0000ff","task":"circle","trial_type":"html-keyboard-response","trial_index":95,"time_elapsed":806324,"internal_node_id":"0.0-2.0-0.93"},{"rt":null,"stimulus":"<div style=\"width:400px; height: 400px; border-radius: 400px; background-color: #0000ff;\"></div>","response":null,"color":"#0000ff","task":"circle","trial_type":"html-keyboard-response","trial_index":96,"time_elapsed":807052,"internal_node_id":"0.0-2.0-0.94"},{"rt":null,"stimulus":"<div style=\"width:400px; height: 400px; border-radius: 400px; background-color: #0000ff;\"></div>","response":null,"color":"#0000ff","task":"circle","trial_type":"html-keyboard-response","trial_index":97,"time_elapsed":807776,"internal_node_id":"0.0-2.0-0.95"},{"rt":null,"stimulus":"<div style=\"width:400px; height: 400px; border-radius: 400px; background-color: #0000ff;\"></div>","response":null,"color":"#0000ff","task":"circle","trial_type":"html-keyboard-response","trial_index":98,"time_elapsed":808489,"internal_node_id":"0.0-2.0-0.96"},{"rt":null,"stimulus":"<div style=\"width:400px; height: 400px; border-radius: 400px; background-color: #0000ff;\"></div>","response":null,"color":"#0000ff","task":"circle","trial_type":"html-keyboard-response","trial_index":99,"time_elapsed":809218,"internal_node_id":"0.0-2.0-0.97"},{"rt":null,"stimulus":"<div style=\"width:400px; height: 400px; border-radius: 400px; background-color: #8000ff;\"></div>","response":null,"color":"#8000ff","task":"circle","trial_type":"html-keyboard-response","trial_index":100,"time_elapsed":809942,"internal_node_id":"0.0-2.0-0.98"},{"rt":null,"stimulus":"<div style=\"width:400px; height: 400px; border-radius: 400px; background-color: #0000ff;\"></div>","response":null,"color":"#0000ff","task":"circle","trial_type":"html-keyboard-response","trial_index":101,"time_elapsed":810666,"internal_node_id":"0.0-2.0-0.99"},{"rt":null,"stimulus":"<div style=\"width:400px; height: 400px; border-radius: 400px; background-color: #0000ff;\"></div>","response":null,"color":"#0000ff","task":"circle","trial_type":"html-keyboard-response","trial_index":102,"time_elapsed":811394,"internal_node_id":"0.0-2.0-0.100"},{"rt":null,"stimulus":"<div style=\"width:400px; height: 400px; border-radius: 400px; background-color: #8000ff;\"></div>","response":null,"color":"#8000ff","task":"circle","trial_type":"html-keyboard-response","trial_index":103,"time_elapsed":812121,"internal_node_id":"0.0-2.0-0.101"},{"rt":null,"stimulus":"<div style=\"width:400px; height: 400px; border-radius: 400px; background-color: #0000ff;\"></div>","response":null,"color":"#0000ff","task":"circle","trial_type":"html-keyboard-response","trial_index":104,"time_elapsed":812846,"internal_node_id":"0.0-2.0-0.102"},{"rt":null,"stimulus":"<div style=\"width:400px; height: 400px; border-radius: 400px; background-color: #0000ff;\"></div>","response":null,"color":"#0000ff","task":"circle","trial_type":"html-keyboard-response","trial_index":105,"time_elapsed":813569,"internal_node_id":"0.0-2.0-0.103"},{"rt":null,"stimulus":"<div style=\"width:400px; height: 400px; border-radius: 400px; background-color: #0000ff;\"></div>","response":null,"color":"#0000ff","task":"circle","trial_type":"html-keyboard-response","trial_index":106,"time_elapsed":814299,"internal_node_id":"0.0-2.0-0.104"},{"rt":null,"stimulus":"<div style=\"width:400px; height: 400px; border-radius: 400px; background-color: #0000ff;\"></div>","response":null,"color":"#0000ff","task":"circle","trial_type":"html-keyboard-response","trial_index":107,"time_elapsed":815022,"internal_node_id":"0.0-2.0-0.105"},{"rt":null,"stimulus":"<div style=\"width:400px; height: 400px; border-radius: 400px; background-color: #0000ff;\"></div>","response":null,"color":"#0000ff","task":"circle","trial_type":"html-keyboard-response","trial_index":108,"time_elapsed":815748,"internal_node_id":"0.0-2.0-0.106"},{"rt":null,"stimulus":"<div style=\"width:400px; height: 400px; border-radius: 400px; background-color: #0000ff;\"></div>","response":null,"color":"#0000ff","task":"circle","trial_type":"html-keyboard-response","trial_index":109,"time_elapsed":816476,"internal_node_id":"0.0-2.0-0.107"},{"rt":null,"stimulus":"<div style=\"width:400px; height: 400px; border-radius: 400px; background-color: #ffaa00;\"></div>","response":null,"color":"#ffaa00","task":"circle","trial_type":"html-keyboard-response","trial_index":110,"time_elapsed":817205,"internal_node_id":"0.0-2.0-0.108"},{"rt":null,"stimulus":"<div style=\"width:400px; height: 400px; border-radius: 400px; background-color: #0000ff;\"></div>","response":null,"color":"#0000ff","task":"circle","trial_type":"html-keyboard-response","trial_index":111,"time_elapsed":817931,"internal_node_id":"0.0-2.0-0.109"},{"rt":null,"stimulus":"<div style=\"width:400px; height: 400px; border-radius: 400px; background-color: #0000ff;\"></div>","response":null,"color":"#0000ff","task":"circle","trial_type":"html-keyboard-response","trial_index":112,"time_elapsed":818658,"internal_node_id":"0.0-2.0-0.110"},{"rt":null,"stimulus":"<div style=\"width:400px; height: 400px; border-radius: 400px; background-color: #ffaa00;\"></div>","response":null,"color":"#ffaa00","task":"circle","trial_type":"html-keyboard-response","trial_index":113,"time_elapsed":819386,"internal_node_id":"0.0-2.0-0.111"},{"rt":null,"stimulus":"<div style=\"width:400px; height: 400px; border-radius: 400px; background-color: #0000ff;\"></div>","response":null,"color":"#0000ff","task":"circle","trial_type":"html-keyboard-response","trial_index":114,"time_elapsed":820109,"internal_node_id":"0.0-2.0-0.112"},{"rt":null,"stimulus":"<div style=\"width:400px; height: 400px; border-radius: 400px; background-color: #0000ff;\"></div>","response":null,"color":"#0000ff","task":"circle","trial_type":"html-keyboard-response","trial_index":115,"time_elapsed":820837,"internal_node_id":"0.0-2.0-0.113"},{"rt":null,"stimulus":"<div style=\"width:400px; height: 400px; border-radius: 400px; background-color: #0000ff;\"></div>","response":null,"color":"#0000ff","task":"circle","trial_type":"html-keyboard-response","trial_index":116,"time_elapsed":821562,"internal_node_id":"0.0-2.0-0.114"},{"rt":null,"stimulus":"<div style=\"width:400px; height: 400px; border-radius: 400px; background-color: #0000ff;\"></div>","response":null,"color":"#0000ff","task":"circle","trial_type":"html-keyboard-response","trial_index":117,"time_elapsed":822288,"internal_node_id":"0.0-2.0-0.115"},{"rt":null,"stimulus":"<div style=\"width:400px; height: 400px; border-radius: 400px; background-color: #0000ff;\"></div>","response":null,"color":"#0000ff","task":"circle","trial_type":"html-keyboard-response","trial_index":118,"time_elapsed":823011,"internal_node_id":"0.0-2.0-0.116"},{"rt":null,"stimulus":"<div style=\"width:400px; height: 400px; border-radius: 400px; background-color: #8000ff;\"></div>","response":null,"color":"#8000ff","task":"circle","trial_type":"html-keyboard-response","trial_index":119,"time_elapsed":823733,"internal_node_id":"0.0-2.0-0.117"},{"rt":null,"stimulus":"<div style=\"width:400px; height: 400px; border-radius: 400px; background-color: #0000ff;\"></div>","response":null,"color":"#0000ff","task":"circle","trial_type":"html-keyboard-response","trial_index":120,"time_elapsed":824461,"internal_node_id":"0.0-2.0-0.118"},{"rt":null,"stimulus":"<div style=\"width:400px; height: 400px; border-radius: 400px; background-color: #0000ff;\"></div>","response":null,"color":"#0000ff","task":"circle","trial_type":"html-keyboard-response","trial_index":121,"time_elapsed":825185,"internal_node_id":"0.0-2.0-0.119"},{"rt":null,"stimulus":"<div style=\"width:400px; height: 400px; border-radius: 400px; background-color: #0000ff;\"></div>","response":null,"color":"#0000ff","task":"circle","trial_type":"html-keyboard-response","trial_index":122,"time_elapsed":825908,"internal_node_id":"0.0-2.0-0.120"},{"rt":null,"stimulus":"<div style=\"width:400px; height: 400px; border-radius: 400px; background-color: #0000ff;\"></div>","response":null,"color":"#0000ff","task":"circle","trial_type":"html-keyboard-response","trial_index":123,"time_elapsed":826631,"internal_node_id":"0.0-2.0-0.121"},{"rt":null,"stimulus":"<div style=\"width:400px; height: 400px; border-radius: 400px; background-color: #0000ff;\"></div>","response":null,"color":"#0000ff","task":"circle","trial_type":"html-keyboard-response","trial_index":124,"time_elapsed":827355,"internal_node_id":"0.0-2.0-0.122"},{"rt":null,"stimulus":"<div style=\"width:400px; height: 400px; border-radius: 400px; background-color: #8000ff;\"></div>","response":null,"color":"#8000ff","task":"circle","trial_type":"html-keyboard-response","trial_index":125,"time_elapsed":828078,"internal_node_id":"0.0-2.0-0.123"},{"rt":null,"stimulus":"<div style=\"width:400px; height: 400px; border-radius: 400px; background-color: #0000ff;\"></div>","response":null,"color":"#0000ff","task":"circle","trial_type":"html-keyboard-response","trial_index":126,"time_elapsed":828804,"internal_node_id":"0.0-2.0-0.124"},{"rt":null,"stimulus":"<div style=\"width:400px; height: 400px; border-radius: 400px; background-color: #0000ff;\"></div>","response":null,"color":"#0000ff","task":"circle","trial_type":"html-keyboard-response","trial_index":127,"time_elapsed":829531,"internal_node_id":"0.0-2.0-0.125"},{"rt":null,"stimulus":"<div style=\"width:400px; height: 400px; border-radius: 400px; background-color: #0000ff;\"></div>","response":null,"color":"#0000ff","task":"circle","trial_type":"html-keyboard-response","trial_index":128,"time_elapsed":830258,"internal_node_id":"0.0-2.0-0.126"},{"rt":null,"stimulus":"<div style=\"width:400px; height: 400px; border-radius: 400px; background-color: #0000ff;\"></div>","response":null,"color":"#0000ff","task":"circle","trial_type":"html-keyboard-response","trial_index":129,"time_elapsed":830984,"internal_node_id":"0.0-2.0-0.127"},{"rt":null,"stimulus":"<div style=\"width:400px; height: 400px; border-radius: 400px; background-color: #0000ff;\"></div>","response":null,"color":"#0000ff","task":"circle","trial_type":"html-keyboard-response","trial_index":130,"time_elapsed":831707,"internal_node_id":"0.0-2.0-0.128"},{"rt":null,"stimulus":"<div style=\"width:400px; height: 400px; border-radius: 400px; background-color: #ffaa00;\"></div>","response":null,"color":"#ffaa00","task":"circle","trial_type":"html-keyboard-response","trial_index":131,"time_elapsed":832432,"internal_node_id":"0.0-2.0-0.129"},{"rt":null,"stimulus":"<div style=\"width:400px; height: 400px; border-radius: 400px; background-color: #0000ff;\"></div>","response":null,"color":"#0000ff","task":"circle","trial_type":"html-keyboard-response","trial_index":132,"time_elapsed":833145,"internal_node_id":"0.0-2.0-0.130"},{"rt":null,"stimulus":"<div style=\"width:400px; height: 400px; border-radius: 400px; background-color: #0000ff;\"></div>","response":null,"color":"#0000ff","task":"circle","trial_type":"html-keyboard-response","trial_index":133,"time_elapsed":833872,"internal_node_id":"0.0-2.0-0.131"},{"rt":null,"stimulus":"<div style=\"width:400px; height: 400px; border-radius: 400px; background-color: #ffaa00;\"></div>","response":null,"color":"#ffaa00","task":"circle","trial_type":"html-keyboard-response","trial_index":134,"time_elapsed":834596,"internal_node_id":"0.0-2.0-0.132"},{"rt":null,"stimulus":"<div style=\"width:400px; height: 400px; border-radius: 400px; background-color: #0000ff;\"></div>","response":null,"color":"#0000ff","task":"circle","trial_type":"html-keyboard-response","trial_index":135,"time_elapsed":835324,"internal_node_id":"0.0-2.0-0.133"},{"rt":null,"stimulus":"<div style=\"width:400px; height: 400px; border-radius: 400px; background-color: #0000ff;\"></div>","response":null,"color":"#0000ff","task":"circle","trial_type":"html-keyboard-response","trial_index":136,"time_elapsed":836051,"internal_node_id":"0.0-2.0-0.134"},{"rt":null,"stimulus":"<div style=\"width:400px; height: 400px; border-radius: 400px; background-color: #0000ff;\"></div>","response":null,"color":"#0000ff","task":"circle","trial_type":"html-keyboard-response","trial_index":137,"time_elapsed":836780,"internal_node_id":"0.0-2.0-0.135"},{"rt":null,"stimulus":"<div style=\"width:400px; height: 400px; border-radius: 400px; background-color: #0000ff;\"></div>","response":null,"color":"#0000ff","task":"circle","trial_type":"html-keyboard-response","trial_index":138,"time_elapsed":837506,"internal_node_id":"0.0-2.0-0.136"},{"rt":null,"stimulus":"<div style=\"width:400px; height: 400px; border-radius: 400px; background-color: #0000ff;\"></div>","response":null,"color":"#0000ff","task":"circle","trial_type":"html-keyboard-response","trial_index":139,"time_elapsed":838230,"internal_node_id":"0.0-2.0-0.137"},{"rt":null,"stimulus":"<div style=\"width:400px; height: 400px; border-radius: 400px; background-color: #0000ff;\"></div>","response":null,"color":"#0000ff","task":"circle","trial_type":"html-keyboard-response","trial_index":140,"time_elapsed":838956,"internal_node_id":"0.0-2.0-0.138"},{"rt":null,"stimulus":"<div style=\"width:400px; height: 400px; border-radius: 400px; background-color: #8000ff;\"></div>","response":null,"color":"#8000ff","task":"circle","trial_type":"html-keyboard-response","trial_index":141,"time_elapsed":839682,"internal_node_id":"0.0-2.0-0.139"},{"rt":null,"stimulus":"<div style=\"width:400px; height: 400px; border-radius: 400px; background-color: #0000ff;\"></div>","response":null,"color":"#0000ff","task":"circle","trial_type":"html-keyboard-response","trial_index":142,"time_elapsed":840408,"internal_node_id":"0.0-2.0-0.140"},{"rt":null,"stimulus":"<div style=\"width:400px; height: 400px; border-radius: 400px; background-color: #0000ff;\"></div>","response":null,"color":"#0000ff","task":"circle","trial_type":"html-keyboard-response","trial_index":143,"time_elapsed":841132,"internal_node_id":"0.0-2.0-0.141"},{"rt":null,"stimulus":"<div style=\"width:400px; height: 400px; border-radius: 400px; background-color: #0000ff;\"></div>","response":null,"color":"#0000ff","task":"circle","trial_type":"html-keyboard-response","trial_index":144,"time_elapsed":841845,"internal_node_id":"0.0-2.0-0.142"},{"rt":null,"stimulus":"<div style=\"width:400px; height: 400px; border-radius: 400px; background-color: #0000ff;\"></div>","response":null,"color":"#0000ff","task":"circle","trial_type":"html-keyboard-response","trial_index":145,"time_elapsed":842568,"internal_node_id":"0.0-2.0-0.143"},{"rt":null,"stimulus":"<div style=\"width:400px; height: 400px; border-radius: 400px; background-color: #8000ff;\"></div>","response":null,"color":"#8000ff","task":"circle","trial_type":"html-keyboard-response","trial_index":146,"time_elapsed":843292,"internal_node_id":"0.0-2.0-0.144"},{"rt":null,"stimulus":"<div style=\"width:400px; height: 400px; border-radius: 400px; background-color: #0000ff;\"></div>","response":null,"color":"#0000ff","task":"circle","trial_type":"html-keyboard-response","trial_index":147,"time_elapsed":844016,"internal_node_id":"0.0-2.0-0.145"},{"rt":null,"stimulus":"<div style=\"width:400px; height: 400px; border-radius: 400px; background-color: #0000ff;\"></div>","response":null,"color":"#0000ff","task":"circle","trial_type":"html-keyboard-response","trial_index":148,"time_elapsed":844739,"internal_node_id":"0.0-2.0-0.146"},{"rt":null,"stimulus":"<div style=\"width:400px; height: 400px; border-radius: 400px; background-color: #0000ff;\"></div>","response":null,"color":"#0000ff","task":"circle","trial_type":"html-keyboard-response","trial_index":149,"time_elapsed":845461,"internal_node_id":"0.0-2.0-0.147"},{"rt":null,"stimulus":"<div style=\"width:400px; height: 400px; border-radius: 400px; background-color: #ffaa00;\"></div>","response":null,"color":"#ffaa00","task":"circle","trial_type":"html-keyboard-response","trial_index":150,"time_elapsed":846181,"internal_node_id":"0.0-2.0-0.148"},{"rt":null,"stimulus":"<div style=\"width:400px; height: 400px; border-radius: 400px; background-color: #0000ff;\"></div>","response":null,"color":"#0000ff","task":"circle","trial_type":"html-keyboard-response","trial_index":151,"time_elapsed":846907,"internal_node_id":"0.0-2.0-0.149"},{"rt":null,"stimulus":"<div style=\"width:400px; height: 400px; border-radius: 400px; background-color: #8000ff;\"></div>","response":null,"color":"#8000ff","task":"circle","trial_type":"html-keyboard-response","trial_index":152,"time_elapsed":847633,"internal_node_id":"0.0-2.0-0.150"},{"rt":null,"stimulus":"<div style=\"width:400px; height: 400px; border-radius: 400px; background-color: #0000ff;\"></div>","response":null,"color":"#0000ff","task":"circle","trial_type":"html-keyboard-response","trial_index":153,"time_elapsed":848359,"internal_node_id":"0.0-2.0-0.151"},{"rt":null,"stimulus":"<div style=\"width:400px; height: 400px; border-radius: 400px; background-color: #0000ff;\"></div>","response":null,"color":"#0000ff","task":"circle","trial_type":"html-keyboard-response","trial_index":154,"time_elapsed":849085,"internal_node_id":"0.0-2.0-0.152"},{"rt":null,"stimulus":"<div style=\"width:400px; height: 400px; border-radius: 400px; background-color: #0000ff;\"></div>","response":null,"color":"#0000ff","task":"circle","trial_type":"html-keyboard-response","trial_index":155,"time_elapsed":849815,"internal_node_id":"0.0-2.0-0.153"},{"rt":null,"stimulus":"<div style=\"width:400px; height: 400px; border-radius: 400px; background-color: #0000ff;\"></div>","response":null,"color":"#0000ff","task":"circle","trial_type":"html-keyboard-response","trial_index":156,"time_elapsed":850543,"internal_node_id":"0.0-2.0-0.154"},{"rt":null,"stimulus":"<div style=\"width:400px; height: 400px; border-radius: 400px; background-color: #0000ff;\"></div>","response":null,"color":"#0000ff","task":"circle","trial_type":"html-keyboard-response","trial_index":157,"time_elapsed":851264,"internal_node_id":"0.0-2.0-0.155"},{"rt":null,"stimulus":"<div style=\"width:400px; height: 400px; border-radius: 400px; background-color: #0000ff;\"></div>","response":null,"color":"#0000ff","task":"circle","trial_type":"html-keyboard-response","trial_index":158,"time_elapsed":851989,"internal_node_id":"0.0-2.0-0.156"},{"rt":null,"stimulus":"<div style=\"width:400px; height: 400px; border-radius: 400px; background-color: #0000ff;\"></div>","response":null,"color":"#0000ff","task":"circle","trial_type":"html-keyboard-response","trial_index":159,"time_elapsed":852712,"internal_node_id":"0.0-2.0-0.157"},{"rt":null,"stimulus":"<div style=\"width:400px; height: 400px; border-radius: 400px; background-color: #ffaa00;\"></div>","response":null,"color":"#ffaa00","task":"circle","trial_type":"html-keyboard-response","trial_index":160,"time_elapsed":853436,"internal_node_id":"0.0-2.0-0.158"},{"rt":null,"stimulus":"<div style=\"width:400px; height: 400px; border-radius: 400px; background-color: #0000ff;\"></div>","response":null,"color":"#0000ff","task":"circle","trial_type":"html-keyboard-response","trial_index":161,"time_elapsed":854159,"internal_node_id":"0.0-2.0-0.159"},{"rt":null,"stimulus":"<div style=\"width:400px; height: 400px; border-radius: 400px; background-color: #0000ff;\"></div>","response":null,"color":"#0000ff","task":"circle","trial_type":"html-keyboard-response","trial_index":162,"time_elapsed":854882,"internal_node_id":"0.0-2.0-0.160"},{"rt":null,"stimulus":"<div style=\"width:400px; height: 400px; border-radius: 400px; background-color: #0000ff;\"></div>","response":null,"color":"#0000ff","task":"circle","trial_type":"html-keyboard-response","trial_index":163,"time_elapsed":855610,"internal_node_id":"0.0-2.0-0.161"},{"rt":null,"stimulus":"<div style=\"width:400px; height: 400px; border-radius: 400px; background-color: #ffaa00;\"></div>","response":null,"color":"#ffaa00","task":"circle","trial_type":"html-keyboard-response","trial_index":164,"time_elapsed":856332,"internal_node_id":"0.0-2.0-0.162"},{"rt":null,"stimulus":"<div style=\"width:400px; height: 400px; border-radius: 400px; background-color: #8000ff;\"></div>","response":null,"color":"#8000ff","task":"circle","trial_type":"html-keyboard-response","trial_index":165,"time_elapsed":857059,"internal_node_id":"0.0-2.0-0.163"},{"rt":null,"stimulus":"<div style=\"width:400px; height: 400px; border-radius: 400px; background-color: #0000ff;\"></div>","response":null,"color":"#0000ff","task":"circle","trial_type":"html-keyboard-response","trial_index":166,"time_elapsed":857780,"internal_node_id":"0.0-2.0-0.164"},{"rt":null,"stimulus":"<div style=\"width:400px; height: 400px; border-radius: 400px; background-color: #0000ff;\"></div>","response":null,"color":"#0000ff","task":"circle","trial_type":"html-keyboard-response","trial_index":167,"time_elapsed":858504,"internal_node_id":"0.0-2.0-0.165"},{"rt":null,"stimulus":"<div style=\"width:400px; height: 400px; border-radius: 400px; background-color: #0000ff;\"></div>","response":null,"color":"#0000ff","task":"circle","trial_type":"html-keyboard-response","trial_index":168,"time_elapsed":859225,"internal_node_id":"0.0-2.0-0.166"},{"rt":null,"stimulus":"<div style=\"width:400px; height: 400px; border-radius: 400px; background-color: #0000ff;\"></div>","response":null,"color":"#0000ff","task":"circle","trial_type":"html-keyboard-response","trial_index":169,"time_elapsed":859948,"internal_node_id":"0.0-2.0-0.167"},{"rt":null,"stimulus":"<div style=\"width:400px; height: 400px; border-radius: 400px; background-color: #0000ff;\"></div>","response":null,"color":"#0000ff","task":"circle","trial_type":"html-keyboard-response","trial_index":170,"time_elapsed":860671,"internal_node_id":"0.0-2.0-0.168"},{"rt":null,"stimulus":"<div style=\"width:400px; height: 400px; border-radius: 400px; background-color: #0000ff;\"></div>","response":null,"color":"#0000ff","task":"circle","trial_type":"html-keyboard-response","trial_index":171,"time_elapsed":861396,"internal_node_id":"0.0-2.0-0.169"},{"rt":null,"stimulus":"<div style=\"width:400px; height: 400px; border-radius: 400px; background-color: #ffaa00;\"></div>","response":null,"color":"#ffaa00","task":"circle","trial_type":"html-keyboard-response","trial_index":172,"time_elapsed":862121,"internal_node_id":"0.0-2.0-0.170"},{"rt":null,"stimulus":"<div style=\"width:400px; height: 400px; border-radius: 400px; background-color: #0000ff;\"></div>","response":null,"color":"#0000ff","task":"circle","trial_type":"html-keyboard-response","trial_index":173,"time_elapsed":862839,"internal_node_id":"0.0-2.0-0.171"},{"rt":null,"stimulus":"<div style=\"width:400px; height: 400px; border-radius: 400px; background-color: #0000ff;\"></div>","response":null,"color":"#0000ff","task":"circle","trial_type":"html-keyboard-response","trial_index":174,"time_elapsed":863563,"internal_node_id":"0.0-2.0-0.172"},{"rt":null,"stimulus":"<div style=\"width:400px; height: 400px; border-radius: 400px; background-color: #8000ff;\"></div>","response":null,"color":"#8000ff","task":"circle","trial_type":"html-keyboard-response","trial_index":175,"time_elapsed":864284,"internal_node_id":"0.0-2.0-0.173"},{"rt":null,"stimulus":"<div style=\"width:400px; height: 400px; border-radius: 400px; background-color: #0000ff;\"></div>","response":null,"color":"#0000ff","task":"circle","trial_type":"html-keyboard-response","trial_index":176,"time_elapsed":865005,"internal_node_id":"0.0-2.0-0.174"},{"rt":null,"stimulus":"<div style=\"width:400px; height: 400px; border-radius: 400px; background-color: #0000ff;\"></div>","response":null,"color":"#0000ff","task":"circle","trial_type":"html-keyboard-response","trial_index":177,"time_elapsed":865730,"internal_node_id":"0.0-2.0-0.175"},{"rt":null,"stimulus":"<div style=\"width:400px; height: 400px; border-radius: 400px; background-color: #0000ff;\"></div>","response":null,"color":"#0000ff","task":"circle","trial_type":"html-keyboard-response","trial_index":178,"time_elapsed":866454,"internal_node_id":"0.0-2.0-0.176"},{"rt":null,"stimulus":"<div style=\"width:400px; height: 400px; border-radius: 400px; background-color: #0000ff;\"></div>","response":null,"color":"#0000ff","task":"circle","trial_type":"html-keyboard-response","trial_index":179,"time_elapsed":867181,"internal_node_id":"0.0-2.0-0.177"},{"rt":null,"stimulus":"<div style=\"width:400px; height: 400px; border-radius: 400px; background-color: #0000ff;\"></div>","response":null,"color":"#0000ff","task":"circle","trial_type":"html-keyboard-response","trial_index":180,"time_elapsed":867905,"internal_node_id":"0.0-2.0-0.178"},{"rt":null,"stimulus":"<div style=\"width:400px; height: 400px; border-radius: 400px; background-color: #0000ff;\"></div>","response":null,"color":"#0000ff","task":"circle","trial_type":"html-keyboard-response","trial_index":181,"time_elapsed":868629,"internal_node_id":"0.0-2.0-0.179"},{"rt":null,"stimulus":"<div style=\"width:400px; height: 400px; border-radius: 400px; background-color: #0000ff;\"></div>","response":null,"color":"#0000ff","task":"circle","trial_type":"html-keyboard-response","trial_index":182,"time_elapsed":869351,"internal_node_id":"0.0-2.0-0.180"},{"rt":null,"stimulus":"<div style=\"width:400px; height: 400px; border-radius: 400px; background-color: #0000ff;\"></div>","response":null,"color":"#0000ff","task":"circle","trial_type":"html-keyboard-response","trial_index":183,"time_elapsed":870077,"internal_node_id":"0.0-2.0-0.181"},{"rt":null,"stimulus":"<div style=\"width:400px; height: 400px; border-radius: 400px; background-color: #0000ff;\"></div>","response":null,"color":"#0000ff","task":"circle","trial_type":"html-keyboard-response","trial_index":184,"time_elapsed":870803,"internal_node_id":"0.0-2.0-0.182"},{"rt":null,"stimulus":"<div style=\"width:400px; height: 400px; border-radius: 400px; background-color: #0000ff;\"></div>","response":null,"color":"#0000ff","task":"circle","trial_type":"html-keyboard-response","trial_index":185,"time_elapsed":871529,"internal_node_id":"0.0-2.0-0.183"},{"rt":null,"stimulus":"<div style=\"width:400px; height: 400px; border-radius: 400px; background-color: #0000ff;\"></div>","response":null,"color":"#0000ff","task":"circle","trial_type":"html-keyboard-response","trial_index":186,"time_elapsed":872244,"internal_node_id":"0.0-2.0-0.184"},{"rt":null,"stimulus":"<div style=\"width:400px; height: 400px; border-radius: 400px; background-color: #8000ff;\"></div>","response":null,"color":"#8000ff","task":"circle","trial_type":"html-keyboard-response","trial_index":187,"time_elapsed":872965,"internal_node_id":"0.0-2.0-0.185"},{"rt":null,"stimulus":"<div style=\"width:400px; height: 400px; border-radius: 400px; background-color: #ffaa00;\"></div>","response":null,"color":"#ffaa00","task":"circle","trial_type":"html-keyboard-response","trial_index":188,"time_elapsed":873688,"internal_node_id":"0.0-2.0-0.186"},{"rt":null,"stimulus":"<div style=\"width:400px; height: 400px; border-radius: 400px; background-color: #0000ff;\"></div>","response":null,"color":"#0000ff","task":"circle","trial_type":"html-keyboard-response","trial_index":189,"time_elapsed":874414,"internal_node_id":"0.0-2.0-0.187"},{"rt":null,"stimulus":"<div style=\"width:400px; height: 400px; border-radius: 400px; background-color: #0000ff;\"></div>","response":null,"color":"#0000ff","task":"circle","trial_type":"html-keyboard-response","trial_index":190,"time_elapsed":875138,"internal_node_id":"0.0-2.0-0.188"},{"rt":null,"stimulus":"<div style=\"width:400px; height: 400px; border-radius: 400px; background-color: #0000ff;\"></div>","response":null,"color":"#0000ff","task":"circle","trial_type":"html-keyboard-response","trial_index":191,"time_elapsed":875864,"internal_node_id":"0.0-2.0-0.189"},{"rt":null,"stimulus":"<div style=\"width:400px; height: 400px; border-radius: 400px; background-color: #0000ff;\"></div>","response":null,"color":"#0000ff","task":"circle","trial_type":"html-keyboard-response","trial_index":192,"time_elapsed":876587,"internal_node_id":"0.0-2.0-0.190"},{"rt":null,"stimulus":"<div style=\"width:400px; height: 400px; border-radius: 400px; background-color: #8000ff;\"></div>","response":null,"color":"#8000ff","task":"circle","trial_type":"html-keyboard-response","trial_index":193,"time_elapsed":877311,"internal_node_id":"0.0-2.0-0.191"},{"rt":null,"stimulus":"<div style=\"width:400px; height: 400px; border-radius: 400px; background-color: #0000ff;\"></div>","response":null,"color":"#0000ff","task":"circle","trial_type":"html-keyboard-response","trial_index":194,"time_elapsed":878032,"internal_node_id":"0.0-2.0-0.192"},{"rt":null,"stimulus":"<div style=\"width:400px; height: 400px; border-radius: 400px; background-color: #0000ff;\"></div>","response":null,"color":"#0000ff","task":"circle","trial_type":"html-keyboard-response","trial_index":195,"time_elapsed":878759,"internal_node_id":"0.0-2.0-0.193"},{"rt":null,"stimulus":"<div style=\"width:400px; height: 400px; border-radius: 400px; background-color: #0000ff;\"></div>","response":null,"color":"#0000ff","task":"circle","trial_type":"html-keyboard-response","trial_index":196,"time_elapsed":879487,"internal_node_id":"0.0-2.0-0.194"},{"rt":null,"stimulus":"<div style=\"width:400px; height: 400px; border-radius: 400px; background-color: #ffaa00;\"></div>","response":null,"color":"#ffaa00","task":"circle","trial_type":"html-keyboard-response","trial_index":197,"time_elapsed":880210,"internal_node_id":"0.0-2.0-0.195"},{"rt":null,"stimulus":"<div style=\"width:400px; height: 400px; border-radius: 400px; background-color: #0000ff;\"></div>","response":null,"color":"#0000ff","task":"circle","trial_type":"html-keyboard-response","trial_index":198,"time_elapsed":880938,"internal_node_id":"0.0-2.0-0.196"},{"rt":null,"stimulus":"<div style=\"width:400px; height: 400px; border-radius: 400px; background-color: #0000ff;\"></div>","response":null,"color":"#0000ff","task":"circle","trial_type":"html-keyboard-response","trial_index":199,"time_elapsed":881666,"internal_node_id":"0.0-2.0-0.197"},{"rt":null,"stimulus":"<div style=\"width:400px; height: 400px; border-radius: 400px; background-color: #0000ff;\"></div>","response":null,"color":"#0000ff","task":"circle","trial_type":"html-keyboard-response","trial_index":200,"time_elapsed":882394,"internal_node_id":"0.0-2.0-0.198"},{"rt":null,"stimulus":"<div style=\"width:400px; height: 400px; border-radius: 400px; background-color: #0000ff;\"></div>","response":null,"color":"#0000ff","task":"circle","trial_type":"html-keyboard-response","trial_index":201,"time_elapsed":883119,"internal_node_id":"0.0-2.0-0.199"},{"rt":null,"stimulus":"<div style=\"width:400px; height: 400px; border-radius: 400px; background-color: #0000ff;\"></div>","response":null,"color":"#0000ff","task":"circle","trial_type":"html-keyboard-response","trial_index":202,"time_elapsed":883845,"internal_node_id":"0.0-2.0-0.200"},{"rt":null,"stimulus":"<div style=\"width:400px; height: 400px; border-radius: 400px; background-color: #ffaa00;\"></div>","response":null,"color":"#ffaa00","task":"circle","trial_type":"html-keyboard-response","trial_index":203,"time_elapsed":884568,"internal_node_id":"0.0-2.0-0.201"},{"rt":null,"stimulus":"<div style=\"width:400px; height: 400px; border-radius: 400px; background-color: #8000ff;\"></div>","response":null,"color":"#8000ff","task":"circle","trial_type":"html-keyboard-response","trial_index":204,"time_elapsed":885291,"internal_node_id":"0.0-2.0-0.202"},{"rt":null,"stimulus":"<div style=\"width:400px; height: 400px; border-radius: 400px; background-color: #0000ff;\"></div>","response":null,"color":"#0000ff","task":"circle","trial_type":"html-keyboard-response","trial_index":205,"time_elapsed":886013,"internal_node_id":"0.0-2.0-0.203"},{"rt":null,"stimulus":"<div style=\"width:400px; height: 400px; border-radius: 400px; background-color: #0000ff;\"></div>","response":null,"color":"#0000ff","task":"circle","trial_type":"html-keyboard-response","trial_index":206,"time_elapsed":886735,"internal_node_id":"0.0-2.0-0.204"},{"rt":null,"stimulus":"<div style=\"width:400px; height: 400px; border-radius: 400px; background-color: #0000ff;\"></div>","response":null,"color":"#0000ff","task":"circle","trial_type":"html-keyboard-response","trial_index":207,"time_elapsed":887452,"internal_node_id":"0.0-2.0-0.205"},{"rt":null,"stimulus":"<div style=\"width:400px; height: 400px; border-radius: 400px; background-color: #0000ff;\"></div>","response":null,"color":"#0000ff","task":"circle","trial_type":"html-keyboard-response","trial_index":208,"time_elapsed":888178,"internal_node_id":"0.0-2.0-0.206"},{"rt":null,"stimulus":"<div style=\"width:400px; height: 400px; border-radius: 400px; background-color: #0000ff;\"></div>","response":null,"color":"#0000ff","task":"circle","trial_type":"html-keyboard-response","trial_index":209,"time_elapsed":888900,"internal_node_id":"0.0-2.0-0.207"},{"rt":null,"stimulus":"<div style=\"width:400px; height: 400px; border-radius: 400px; background-color: #0000ff;\"></div>","response":null,"color":"#0000ff","task":"circle","trial_type":"html-keyboard-response","trial_index":210,"time_elapsed":889624,"internal_node_id":"0.0-2.0-0.208"},{"rt":null,"stimulus":"<div style=\"width:400px; height: 400px; border-radius: 400px; background-color: #0000ff;\"></div>","response":null,"color":"#0000ff","task":"circle","trial_type":"html-keyboard-response","trial_index":211,"time_elapsed":890347,"internal_node_id":"0.0-2.0-0.209"},{"rt":null,"stimulus":"<div style=\"width:400px; height: 400px; border-radius: 400px; background-color: #0000ff;\"></div>","response":null,"color":"#0000ff","task":"circle","trial_type":"html-keyboard-response","trial_index":212,"time_elapsed":891072,"internal_node_id":"0.0-2.0-0.210"},{"rt":null,"stimulus":"<div style=\"width:400px; height: 400px; border-radius: 400px; background-color: #8000ff;\"></div>","response":null,"color":"#8000ff","task":"circle","trial_type":"html-keyboard-response","trial_index":213,"time_elapsed":891797,"internal_node_id":"0.0-2.0-0.211"},{"rt":null,"stimulus":"<div style=\"width:400px; height: 400px; border-radius: 400px; background-color: #0000ff;\"></div>","response":null,"color":"#0000ff","task":"circle","trial_type":"html-keyboard-response","trial_index":214,"time_elapsed":892516,"internal_node_id":"0.0-2.0-0.212"},{"rt":null,"stimulus":"<div style=\"width:400px; height: 400px; border-radius: 400px; background-color: #0000ff;\"></div>","response":null,"color":"#0000ff","task":"circle","trial_type":"html-keyboard-response","trial_index":215,"time_elapsed":893237,"internal_node_id":"0.0-2.0-0.213"},{"rt":null,"stimulus":"<div style=\"width:400px; height: 400px; border-radius: 400px; background-color: #ffaa00;\"></div>","response":null,"color":"#ffaa00","task":"circle","trial_type":"html-keyboard-response","trial_index":216,"time_elapsed":893964,"internal_node_id":"0.0-2.0-0.214"},{"rt":null,"stimulus":"<div style=\"width:400px; height: 400px; border-radius: 400px; background-color: #0000ff;\"></div>","response":null,"color":"#0000ff","task":"circle","trial_type":"html-keyboard-response","trial_index":217,"time_elapsed":894690,"internal_node_id":"0.0-2.0-0.215"},{"rt":null,"stimulus":"<div style=\"width:400px; height: 400px; border-radius: 400px; background-color: #0000ff;\"></div>","response":null,"color":"#0000ff","task":"circle","trial_type":"html-keyboard-response","trial_index":218,"time_elapsed":895410,"internal_node_id":"0.0-2.0-0.216"},{"rt":null,"stimulus":"<div style=\"width:400px; height: 400px; border-radius: 400px; background-color: #0000ff;\"></div>","response":null,"color":"#0000ff","task":"circle","trial_type":"html-keyboard-response","trial_index":219,"time_elapsed":896131,"internal_node_id":"0.0-2.0-0.217"},{"rt":null,"stimulus":"<div style=\"width:400px; height: 400px; border-radius: 400px; background-color: #0000ff;\"></div>","response":null,"color":"#0000ff","task":"circle","trial_type":"html-keyboard-response","trial_index":220,"time_elapsed":896852,"internal_node_id":"0.0-2.0-0.218"},{"rt":null,"stimulus":"<div style=\"width:400px; height: 400px; border-radius: 400px; background-color: #0000ff;\"></div>","response":null,"color":"#0000ff","task":"circle","trial_type":"html-keyboard-response","trial_index":221,"time_elapsed":897573,"internal_node_id":"0.0-2.0-0.219"},{"rt":null,"stimulus":"<div style=\"width:400px; height: 400px; border-radius: 400px; background-color: #0000ff;\"></div>","response":null,"color":"#0000ff","task":"circle","trial_type":"html-keyboard-response","trial_index":222,"time_elapsed":898295,"internal_node_id":"0.0-2.0-0.220"},{"rt":null,"stimulus":"<div style=\"width:400px; height: 400px; border-radius: 400px; background-color: #0000ff;\"></div>","response":null,"color":"#0000ff","task":"circle","trial_type":"html-keyboard-response","trial_index":223,"time_elapsed":899024,"internal_node_id":"0.0-2.0-0.221"},{"rt":null,"stimulus":"<div style=\"width:400px; height: 400px; border-radius: 400px; background-color: #0000ff;\"></div>","response":null,"color":"#0000ff","task":"circle","trial_type":"html-keyboard-response","trial_index":224,"time_elapsed":899747,"internal_node_id":"0.0-2.0-0.222"},{"rt":null,"stimulus":"<div style=\"width:400px; height: 400px; border-radius: 400px; background-color: #ffaa00;\"></div>","response":null,"color":"#ffaa00","task":"circle","trial_type":"html-keyboard-response","trial_index":225,"time_elapsed":900470,"internal_node_id":"0.0-2.0-0.223"},{"rt":null,"stimulus":"<div style=\"width:400px; height: 400px; border-radius: 400px; background-color: #0000ff;\"></div>","response":null,"color":"#0000ff","task":"circle","trial_type":"html-keyboard-response","trial_index":226,"time_elapsed":901195,"internal_node_id":"0.0-2.0-0.224"},{"rt":null,"stimulus":"<div style=\"width:400px; height: 400px; border-radius: 400px; background-color: #0000ff;\"></div>","response":null,"color":"#0000ff","task":"circle","trial_type":"html-keyboard-response","trial_index":227,"time_elapsed":901922,"internal_node_id":"0.0-2.0-0.225"},{"rt":null,"stimulus":"<div style=\"width:400px; height: 400px; border-radius: 400px; background-color: #0000ff;\"></div>","response":null,"color":"#0000ff","task":"circle","trial_type":"html-keyboard-response","trial_index":228,"time_elapsed":902645,"internal_node_id":"0.0-2.0-0.226"},{"rt":null,"stimulus":"<div style=\"width:400px; height: 400px; border-radius: 400px; background-color: #0000ff;\"></div>","response":null,"color":"#0000ff","task":"circle","trial_type":"html-keyboard-response","trial_index":229,"time_elapsed":903369,"internal_node_id":"0.0-2.0-0.227"},{"rt":null,"stimulus":"<div style=\"width:400px; height: 400px; border-radius: 400px; background-color: #8000ff;\"></div>","response":null,"color":"#8000ff","task":"circle","trial_type":"html-keyboard-response","trial_index":230,"time_elapsed":904093,"internal_node_id":"0.0-2.0-0.228"},{"rt":null,"stimulus":"<div style=\"width:400px; height: 400px; border-radius: 400px; background-color: #0000ff;\"></div>","response":null,"color":"#0000ff","task":"circle","trial_type":"html-keyboard-response","trial_index":231,"time_elapsed":904820,"internal_node_id":"0.0-2.0-0.229"},{"rt":null,"stimulus":"<div style=\"width:400px; height: 400px; border-radius: 400px; background-color: #0000ff;\"></div>","response":null,"color":"#0000ff","task":"circle","trial_type":"html-keyboard-response","trial_index":232,"time_elapsed":905545,"internal_node_id":"0.0-2.0-0.230"},{"rt":null,"stimulus":"<div style=\"width:400px; height: 400px; border-radius: 400px; background-color: #0000ff;\"></div>","response":null,"color":"#0000ff","task":"circle","trial_type":"html-keyboard-response","trial_index":233,"time_elapsed":906262,"internal_node_id":"0.0-2.0-0.231"},{"rt":null,"stimulus":"<div style=\"width:400px; height: 400px; border-radius: 400px; background-color: #ffaa00;\"></div>","response":null,"color":"#ffaa00","task":"circle","trial_type":"html-keyboard-response","trial_index":234,"time_elapsed":906989,"internal_node_id":"0.0-2.0-0.232"},{"rt":null,"stimulus":"<div style=\"width:400px; height: 400px; border-radius: 400px; background-color: #0000ff;\"></div>","response":null,"color":"#0000ff","task":"circle","trial_type":"html-keyboard-response","trial_index":235,"time_elapsed":907710,"internal_node_id":"0.0-2.0-0.233"},{"rt":null,"stimulus":"<div style=\"width:400px; height: 400px; border-radius: 400px; background-color: #0000ff;\"></div>","response":null,"color":"#0000ff","task":"circle","trial_type":"html-keyboard-response","trial_index":236,"time_elapsed":908434,"internal_node_id":"0.0-2.0-0.234"},{"rt":null,"stimulus":"<div style=\"width:400px; height: 400px; border-radius: 400px; background-color: #0000ff;\"></div>","response":null,"color":"#0000ff","task":"circle","trial_type":"html-keyboard-response","trial_index":237,"time_elapsed":909163,"internal_node_id":"0.0-2.0-0.235"},{"rt":null,"stimulus":"<div style=\"width:400px; height: 400px; border-radius: 400px; background-color: #0000ff;\"></div>","response":null,"color":"#0000ff","task":"circle","trial_type":"html-keyboard-response","trial_index":238,"time_elapsed":909880,"internal_node_id":"0.0-2.0-0.236"},{"rt":null,"stimulus":"<div style=\"width:400px; height: 400px; border-radius: 400px; background-color: #0000ff;\"></div>","response":null,"color":"#0000ff","task":"circle","trial_type":"html-keyboard-response","trial_index":239,"time_elapsed":910605,"internal_node_id":"0.0-2.0-0.237"},{"rt":null,"stimulus":"<div style=\"width:400px; height: 400px; border-radius: 400px; background-color: #0000ff;\"></div>","response":null,"color":"#0000ff","task":"circle","trial_type":"html-keyboard-response","trial_index":240,"time_elapsed":911332,"internal_node_id":"0.0-2.0-0.238"},{"rt":null,"stimulus":"<div style=\"width:400px; height: 400px; border-radius: 400px; background-color: #8000ff;\"></div>","response":null,"color":"#8000ff","task":"circle","trial_type":"html-keyboard-response","trial_index":241,"time_elapsed":912056,"internal_node_id":"0.0-2.0-0.239"},{"rt":null,"stimulus":"<div style=\"width:400px; height: 400px; border-radius: 400px; background-color: #0000ff;\"></div>","response":null,"color":"#0000ff","task":"circle","trial_type":"html-keyboard-response","trial_index":242,"time_elapsed":912780,"internal_node_id":"0.0-2.0-0.240"},{"rt":null,"stimulus":"<div style=\"width:400px; height: 400px; border-radius: 400px; background-color: #0000ff;\"></div>","response":null,"color":"#0000ff","task":"circle","trial_type":"html-keyboard-response","trial_index":243,"time_elapsed":913504,"internal_node_id":"0.0-2.0-0.241"},{"rt":null,"stimulus":"<div style=\"width:400px; height: 400px; border-radius: 400px; background-color: #8000ff;\"></div>","response":null,"color":"#8000ff","task":"circle","trial_type":"html-keyboard-response","trial_index":244,"time_elapsed":914230,"internal_node_id":"0.0-2.0-0.242"},{"rt":null,"stimulus":"<div style=\"width:400px; height: 400px; border-radius: 400px; background-color: #0000ff;\"></div>","response":null,"color":"#0000ff","task":"circle","trial_type":"html-keyboard-response","trial_index":245,"time_elapsed":914958,"internal_node_id":"0.0-2.0-0.243"},{"rt":null,"stimulus":"<div style=\"width:400px; height: 400px; border-radius: 400px; background-color: #0000ff;\"></div>","response":null,"color":"#0000ff","task":"circle","trial_type":"html-keyboard-response","trial_index":246,"time_elapsed":915684,"internal_node_id":"0.0-2.0-0.244"},{"rt":null,"stimulus":"<div style=\"width:400px; height: 400px; border-radius: 400px; background-color: #0000ff;\"></div>","response":null,"color":"#0000ff","task":"circle","trial_type":"html-keyboard-response","trial_index":247,"time_elapsed":916411,"internal_node_id":"0.0-2.0-0.245"},{"rt":null,"stimulus":"<div style=\"width:400px; height: 400px; border-radius: 400px; background-color: #0000ff;\"></div>","response":null,"color":"#0000ff","task":"circle","trial_type":"html-keyboard-response","trial_index":248,"time_elapsed":917140,"internal_node_id":"0.0-2.0-0.246"},{"rt":null,"stimulus":"<div style=\"width:400px; height: 400px; border-radius: 400px; background-color: #ffaa00;\"></div>","response":null,"color":"#ffaa00","task":"circle","trial_type":"html-keyboard-response","trial_index":249,"time_elapsed":917862,"internal_node_id":"0.0-2.0-0.247"},{"rt":null,"stimulus":"<div style=\"width:400px; height: 400px; border-radius: 400px; background-color: #0000ff;\"></div>","response":null,"color":"#0000ff","task":"circle","trial_type":"html-keyboard-response","trial_index":250,"time_elapsed":918586,"internal_node_id":"0.0-2.0-0.248"},{"rt":null,"stimulus":"<div style=\"width:400px; height: 400px; border-radius: 400px; background-color: #0000ff;\"></div>","response":null,"color":"#0000ff","task":"circle","trial_type":"html-keyboard-response","trial_index":251,"time_elapsed":919308,"internal_node_id":"0.0-2.0-0.249"},{"rt":2840,"response":{"Q0":"50"},"task":"count","trial_type":"survey-text","trial_index":252,"time_elapsed":922514,"internal_node_id":"0.0-3.0"},{"rt":483,"stimulus":"<p>When you are ready for the next round, press the spacebar.</p>","response":" ","trial_type":"html-keyboard-response","trial_index":253,"time_elapsed":924003,"internal_node_id":"0.0-4.0"},{"rt":null,"stimulus":"<div style=\"width:400px; height: 400px; border-radius: 400px; background-color: #0000ff;\"></div>","response":null,"color":"#0000ff","task":"circle","trial_type":"html-keyboard-response","trial_index":254,"time_elapsed":924356,"internal_node_id":"0.0-5.0-0.0"},{"rt":null,"stimulus":"<div style=\"width:400px; height: 400px; border-radius: 400px; background-color: #0000ff;\"></div>","response":null,"color":"#0000ff","task":"circle","trial_type":"html-keyboard-response","trial_index":255,"time_elapsed":925082,"internal_node_id":"0.0-5.0-0.1"},{"rt":null,"stimulus":"<div style=\"width:400px; height: 400px; border-radius: 400px; background-color: #0000ff;\"></div>","response":null,"color":"#0000ff","task":"circle","trial_type":"html-keyboard-response","trial_index":256,"time_elapsed":925806,"internal_node_id":"0.0-5.0-0.2"},{"rt":null,"stimulus":"<div style=\"width:400px; height: 400px; border-radius: 400px; background-color: #ffaa00;\"></div>","response":null,"color":"#ffaa00","task":"circle","trial_type":"html-keyboard-response","trial_index":257,"time_elapsed":926536,"internal_node_id":"0.0-5.0-0.3"},{"rt":null,"stimulus":"<div style=\"width:400px; height: 400px; border-radius: 400px; background-color: #0000ff;\"></div>","response":null,"color":"#0000ff","task":"circle","trial_type":"html-keyboard-response","trial_index":258,"time_elapsed":927258,"internal_node_id":"0.0-5.0-0.4"},{"rt":null,"stimulus":"<div style=\"width:400px; height: 400px; border-radius: 400px; background-color: #0000ff;\"></div>","response":null,"color":"#0000ff","task":"circle","trial_type":"html-keyboard-response","trial_index":259,"time_elapsed":927981,"internal_node_id":"0.0-5.0-0.5"},{"rt":null,"stimulus":"<div style=\"width:400px; height: 400px; border-radius: 400px; background-color: #8000ff;\"></div>","response":null,"color":"#8000ff","task":"circle","trial_type":"html-keyboard-response","trial_index":260,"time_elapsed":928706,"internal_node_id":"0.0-5.0-0.6"},{"rt":null,"stimulus":"<div style=\"width:400px; height: 400px; border-radius: 400px; background-color: #0000ff;\"></div>","response":null,"color":"#0000ff","task":"circle","trial_type":"html-keyboard-response","trial_index":261,"time_elapsed":929428,"internal_node_id":"0.0-5.0-0.7"},{"rt":null,"stimulus":"<div style=\"width:400px; height: 400px; border-radius: 400px; background-color: #0000ff;\"></div>","response":null,"color":"#0000ff","task":"circle","trial_type":"html-keyboard-response","trial_index":262,"time_elapsed":930153,"internal_node_id":"0.0-5.0-0.8"},{"rt":null,"stimulus":"<div style=\"width:400px; height: 400px; border-radius: 400px; background-color: #0000ff;\"></div>","response":null,"color":"#0000ff","task":"circle","trial_type":"html-keyboard-response","trial_index":263,"time_elapsed":930880,"internal_node_id":"0.0-5.0-0.9"},{"rt":null,"stimulus":"<div style=\"width:400px; height: 400px; border-radius: 400px; background-color: #ffaa00;\"></div>","response":null,"color":"#ffaa00","task":"circle","trial_type":"html-keyboard-response","trial_index":264,"time_elapsed":931607,"internal_node_id":"0.0-5.0-0.10"},{"rt":null,"stimulus":"<div style=\"width:400px; height: 400px; border-radius: 400px; background-color: #0000ff;\"></div>","response":null,"color":"#0000ff","task":"circle","trial_type":"html-keyboard-response","trial_index":265,"time_elapsed":932318,"internal_node_id":"0.0-5.0-0.11"},{"rt":null,"stimulus":"<div style=\"width:400px; height: 400px; border-radius: 400px; background-color: #0000ff;\"></div>","response":null,"color":"#0000ff","task":"circle","trial_type":"html-keyboard-response","trial_index":266,"time_elapsed":933047,"internal_node_id":"0.0-5.0-0.12"},{"rt":null,"stimulus":"<div style=\"width:400px; height: 400px; border-radius: 400px; background-color: #0000ff;\"></div>","response":null,"color":"#0000ff","task":"circle","trial_type":"html-keyboard-response","trial_index":267,"time_elapsed":933776,"internal_node_id":"0.0-5.0-0.13"},{"rt":null,"stimulus":"<div style=\"width:400px; height: 400px; border-radius: 400px; background-color: #0000ff;\"></div>","response":null,"color":"#0000ff","task":"circle","trial_type":"html-keyboard-response","trial_index":268,"time_elapsed":934500,"internal_node_id":"0.0-5.0-0.14"},{"rt":null,"stimulus":"<div style=\"width:400px; height: 400px; border-radius: 400px; background-color: #0000ff;\"></div>","response":null,"color":"#0000ff","task":"circle","trial_type":"html-keyboard-response","trial_index":269,"time_elapsed":935226,"internal_node_id":"0.0-5.0-0.15"},{"rt":null,"stimulus":"<div style=\"width:400px; height: 400px; border-radius: 400px; background-color: #0000ff;\"></div>","response":null,"color":"#0000ff","task":"circle","trial_type":"html-keyboard-response","trial_index":270,"time_elapsed":935949,"internal_node_id":"0.0-5.0-0.16"},{"rt":null,"stimulus":"<div style=\"width:400px; height: 400px; border-radius: 400px; background-color: #8000ff;\"></div>","response":null,"color":"#8000ff","task":"circle","trial_type":"html-keyboard-response","trial_index":271,"time_elapsed":936677,"internal_node_id":"0.0-5.0-0.17"},{"rt":null,"stimulus":"<div style=\"width:400px; height: 400px; border-radius: 400px; background-color: #0000ff;\"></div>","response":null,"color":"#0000ff","task":"circle","trial_type":"html-keyboard-response","trial_index":272,"time_elapsed":937399,"internal_node_id":"0.0-5.0-0.18"},{"rt":null,"stimulus":"<div style=\"width:400px; height: 400px; border-radius: 400px; background-color: #0000ff;\"></div>","response":null,"color":"#0000ff","task":"circle","trial_type":"html-keyboard-response","trial_index":273,"time_elapsed":938124,"internal_node_id":"0.0-5.0-0.19"},{"rt":null,"stimulus":"<div style=\"width:400px; height: 400px; border-radius: 400px; background-color: #0000ff;\"></div>","response":null,"color":"#0000ff","task":"circle","trial_type":"html-keyboard-response","trial_index":274,"time_elapsed":938849,"internal_node_id":"0.0-5.0-0.20"},{"rt":null,"stimulus":"<div style=\"width:400px; height: 400px; border-radius: 400px; background-color: #0000ff;\"></div>","response":null,"color":"#0000ff","task":"circle","trial_type":"html-keyboard-response","trial_index":275,"time_elapsed":939574,"internal_node_id":"0.0-5.0-0.21"},{"rt":null,"stimulus":"<div style=\"width:400px; height: 400px; border-radius: 400px; background-color: #0000ff;\"></div>","response":null,"color":"#0000ff","task":"circle","trial_type":"html-keyboard-response","trial_index":276,"time_elapsed":940293,"internal_node_id":"0.0-5.0-0.22"},{"rt":null,"stimulus":"<div style=\"width:400px; height: 400px; border-radius: 400px; background-color: #ffaa00;\"></div>","response":null,"color":"#ffaa00","task":"circle","trial_type":"html-keyboard-response","trial_index":277,"time_elapsed":941013,"internal_node_id":"0.0-5.0-0.23"},{"rt":null,"stimulus":"<div style=\"width:400px; height: 400px; border-radius: 400px; background-color: #0000ff;\"></div>","response":null,"color":"#0000ff","task":"circle","trial_type":"html-keyboard-response","trial_index":278,"time_elapsed":941737,"internal_node_id":"0.0-5.0-0.24"},{"rt":null,"stimulus":"<div style=\"width:400px; height: 400px; border-radius: 400px; background-color: #0000ff;\"></div>","response":null,"color":"#0000ff","task":"circle","trial_type":"html-keyboard-response","trial_index":279,"time_elapsed":942460,"internal_node_id":"0.0-5.0-0.25"},{"rt":null,"stimulus":"<div style=\"width:400px; height: 400px; border-radius: 400px; background-color: #0000ff;\"></div>","response":null,"color":"#0000ff","task":"circle","trial_type":"html-keyboard-response","trial_index":280,"time_elapsed":943182,"internal_node_id":"0.0-5.0-0.26"},{"rt":null,"stimulus":"<div style=\"width:400px; height: 400px; border-radius: 400px; background-color: #0000ff;\"></div>","response":null,"color":"#0000ff","task":"circle","trial_type":"html-keyboard-response","trial_index":281,"time_elapsed":943911,"internal_node_id":"0.0-5.0-0.27"},{"rt":null,"stimulus":"<div style=\"width:400px; height: 400px; border-radius: 400px; background-color: #0000ff;\"></div>","response":null,"color":"#0000ff","task":"circle","trial_type":"html-keyboard-response","trial_index":282,"time_elapsed":944636,"internal_node_id":"0.0-5.0-0.28"},{"rt":null,"stimulus":"<div style=\"width:400px; height: 400px; border-radius: 400px; background-color: #8000ff;\"></div>","response":null,"color":"#8000ff","task":"circle","trial_type":"html-keyboard-response","trial_index":283,"time_elapsed":945361,"internal_node_id":"0.0-5.0-0.29"},{"rt":null,"stimulus":"<div style=\"width:400px; height: 400px; border-radius: 400px; background-color: #0000ff;\"></div>","response":null,"color":"#0000ff","task":"circle","trial_type":"html-keyboard-response","trial_index":284,"time_elapsed":946085,"internal_node_id":"0.0-5.0-0.30"},{"rt":null,"stimulus":"<div style=\"width:400px; height: 400px; border-radius: 400px; background-color: #0000ff;\"></div>","response":null,"color":"#0000ff","task":"circle","trial_type":"html-keyboard-response","trial_index":285,"time_elapsed":946814,"internal_node_id":"0.0-5.0-0.31"},{"rt":null,"stimulus":"<div style=\"width:400px; height: 400px; border-radius: 400px; background-color: #0000ff;\"></div>","response":null,"color":"#0000ff","task":"circle","trial_type":"html-keyboard-response","trial_index":286,"time_elapsed":947539,"internal_node_id":"0.0-5.0-0.32"},{"rt":null,"stimulus":"<div style=\"width:400px; height: 400px; border-radius: 400px; background-color: #0000ff;\"></div>","response":null,"color":"#0000ff","task":"circle","trial_type":"html-keyboard-response","trial_index":287,"time_elapsed":948258,"internal_node_id":"0.0-5.0-0.33"},{"rt":null,"stimulus":"<div style=\"width:400px; height: 400px; border-radius: 400px; background-color: #0000ff;\"></div>","response":null,"color":"#0000ff","task":"circle","trial_type":"html-keyboard-response","trial_index":288,"time_elapsed":948982,"internal_node_id":"0.0-5.0-0.34"},{"rt":null,"stimulus":"<div style=\"width:400px; height: 400px; border-radius: 400px; background-color: #8000ff;\"></div>","response":null,"color":"#8000ff","task":"circle","trial_type":"html-keyboard-response","trial_index":289,"time_elapsed":949692,"internal_node_id":"0.0-5.0-0.35"},{"rt":null,"stimulus":"<div style=\"width:400px; height: 400px; border-radius: 400px; background-color: #0000ff;\"></div>","response":null,"color":"#0000ff","task":"circle","trial_type":"html-keyboard-response","trial_index":290,"time_elapsed":950413,"internal_node_id":"0.0-5.0-0.36"},{"rt":null,"stimulus":"<div style=\"width:400px; height: 400px; border-radius: 400px; background-color: #0000ff;\"></div>","response":null,"color":"#0000ff","task":"circle","trial_type":"html-keyboard-response","trial_index":291,"time_elapsed":951137,"internal_node_id":"0.0-5.0-0.37"},{"rt":null,"stimulus":"<div style=\"width:400px; height: 400px; border-radius: 400px; background-color: #ffaa00;\"></div>","response":null,"color":"#ffaa00","task":"circle","trial_type":"html-keyboard-response","trial_index":292,"time_elapsed":951858,"internal_node_id":"0.0-5.0-0.38"},{"rt":null,"stimulus":"<div style=\"width:400px; height: 400px; border-radius: 400px; background-color: #0000ff;\"></div>","response":null,"color":"#0000ff","task":"circle","trial_type":"html-keyboard-response","trial_index":293,"time_elapsed":952581,"internal_node_id":"0.0-5.0-0.39"},{"rt":null,"stimulus":"<div style=\"width:400px; height: 400px; border-radius: 400px; background-color: #0000ff;\"></div>","response":null,"color":"#0000ff","task":"circle","trial_type":"html-keyboard-response","trial_index":294,"time_elapsed":953305,"internal_node_id":"0.0-5.0-0.40"},{"rt":null,"stimulus":"<div style=\"width:400px; height: 400px; border-radius: 400px; background-color: #0000ff;\"></div>","response":null,"color":"#0000ff","task":"circle","trial_type":"html-keyboard-response","trial_index":295,"time_elapsed":954031,"internal_node_id":"0.0-5.0-0.41"},{"rt":null,"stimulus":"<div style=\"width:400px; height: 400px; border-radius: 400px; background-color: #0000ff;\"></div>","response":null,"color":"#0000ff","task":"circle","trial_type":"html-keyboard-response","trial_index":296,"time_elapsed":954753,"internal_node_id":"0.0-5.0-0.42"},{"rt":null,"stimulus":"<div style=\"width:400px; height: 400px; border-radius: 400px; background-color: #0000ff;\"></div>","response":null,"color":"#0000ff","task":"circle","trial_type":"html-keyboard-response","trial_index":297,"time_elapsed":955482,"internal_node_id":"0.0-5.0-0.43"},{"rt":null,"stimulus":"<div style=\"width:400px; height: 400px; border-radius: 400px; background-color: #8000ff;\"></div>","response":null,"color":"#8000ff","task":"circle","trial_type":"html-keyboard-response","trial_index":298,"time_elapsed":956206,"internal_node_id":"0.0-5.0-0.44"},{"rt":null,"stimulus":"<div style=\"width:400px; height: 400px; border-radius: 400px; background-color: #ffaa00;\"></div>","response":null,"color":"#ffaa00","task":"circle","trial_type":"html-keyboard-response","trial_index":299,"time_elapsed":956930,"internal_node_id":"0.0-5.0-0.45"},{"rt":null,"stimulus":"<div style=\"width:400px; height: 400px; border-radius: 400px; background-color: #0000ff;\"></div>","response":null,"color":"#0000ff","task":"circle","trial_type":"html-keyboard-response","trial_index":300,"time_elapsed":957658,"internal_node_id":"0.0-5.0-0.46"},{"rt":null,"stimulus":"<div style=\"width:400px; height: 400px; border-radius: 400px; background-color: #0000ff;\"></div>","response":null,"color":"#0000ff","task":"circle","trial_type":"html-keyboard-response","trial_index":301,"time_elapsed":958379,"internal_node_id":"0.0-5.0-0.47"},{"rt":null,"stimulus":"<div style=\"width:400px; height: 400px; border-radius: 400px; background-color: #0000ff;\"></div>","response":null,"color":"#0000ff","task":"circle","trial_type":"html-keyboard-response","trial_index":302,"time_elapsed":959105,"internal_node_id":"0.0-5.0-0.48"},{"rt":null,"stimulus":"<div style=\"width:400px; height: 400px; border-radius: 400px; background-color: #0000ff;\"></div>","response":null,"color":"#0000ff","task":"circle","trial_type":"html-keyboard-response","trial_index":303,"time_elapsed":959833,"internal_node_id":"0.0-5.0-0.49"},{"rt":null,"stimulus":"<div style=\"width:400px; height: 400px; border-radius: 400px; background-color: #8000ff;\"></div>","response":null,"color":"#8000ff","task":"circle","trial_type":"html-keyboard-response","trial_index":304,"time_elapsed":960555,"internal_node_id":"0.0-5.0-0.50"},{"rt":null,"stimulus":"<div style=\"width:400px; height: 400px; border-radius: 400px; background-color: #0000ff;\"></div>","response":null,"color":"#0000ff","task":"circle","trial_type":"html-keyboard-response","trial_index":305,"time_elapsed":961282,"internal_node_id":"0.0-5.0-0.51"},{"rt":null,"stimulus":"<div style=\"width:400px; height: 400px; border-radius: 400px; background-color: #ffaa00;\"></div>","response":null,"color":"#ffaa00","task":"circle","trial_type":"html-keyboard-response","trial_index":306,"time_elapsed":962011,"internal_node_id":"0.0-5.0-0.52"},{"rt":null,"stimulus":"<div style=\"width:400px; height: 400px; border-radius: 400px; background-color: #0000ff;\"></div>","response":null,"color":"#0000ff","task":"circle","trial_type":"html-keyboard-response","trial_index":307,"time_elapsed":962739,"internal_node_id":"0.0-5.0-0.53"},{"rt":null,"stimulus":"<div style=\"width:400px; height: 400px; border-radius: 400px; background-color: #0000ff;\"></div>","response":null,"color":"#0000ff","task":"circle","trial_type":"html-keyboard-response","trial_index":308,"time_elapsed":963466,"internal_node_id":"0.0-5.0-0.54"},{"rt":null,"stimulus":"<div style=\"width:400px; height: 400px; border-radius: 400px; background-color: #0000ff;\"></div>","response":null,"color":"#0000ff","task":"circle","trial_type":"html-keyboard-response","trial_index":309,"time_elapsed":964195,"internal_node_id":"0.0-5.0-0.55"},{"rt":null,"stimulus":"<div style=\"width:400px; height: 400px; border-radius: 400px; background-color: #0000ff;\"></div>","response":null,"color":"#0000ff","task":"circle","trial_type":"html-keyboard-response","trial_index":310,"time_elapsed":964924,"internal_node_id":"0.0-5.0-0.56"},{"rt":null,"stimulus":"<div style=\"width:400px; height: 400px; border-radius: 400px; background-color: #0000ff;\"></div>","response":null,"color":"#0000ff","task":"circle","trial_type":"html-keyboard-response","trial_index":311,"time_elapsed":965648,"internal_node_id":"0.0-5.0-0.57"},{"rt":null,"stimulus":"<div style=\"width:400px; height: 400px; border-radius: 400px; background-color: #0000ff;\"></div>","response":null,"color":"#0000ff","task":"circle","trial_type":"html-keyboard-response","trial_index":312,"time_elapsed":966372,"internal_node_id":"0.0-5.0-0.58"},{"rt":null,"stimulus":"<div style=\"width:400px; height: 400px; border-radius: 400px; background-color: #0000ff;\"></div>","response":null,"color":"#0000ff","task":"circle","trial_type":"html-keyboard-response","trial_index":313,"time_elapsed":967102,"internal_node_id":"0.0-5.0-0.59"},{"rt":null,"stimulus":"<div style=\"width:400px; height: 400px; border-radius: 400px; background-color: #0000ff;\"></div>","response":null,"color":"#0000ff","task":"circle","trial_type":"html-keyboard-response","trial_index":314,"time_elapsed":967828,"internal_node_id":"0.0-5.0-0.60"},{"rt":null,"stimulus":"<div style=\"width:400px; height: 400px; border-radius: 400px; background-color: #ffaa00;\"></div>","response":null,"color":"#ffaa00","task":"circle","trial_type":"html-keyboard-response","trial_index":315,"time_elapsed":968552,"internal_node_id":"0.0-5.0-0.61"},{"rt":null,"stimulus":"<div style=\"width:400px; height: 400px; border-radius: 400px; background-color: #0000ff;\"></div>","response":null,"color":"#0000ff","task":"circle","trial_type":"html-keyboard-response","trial_index":316,"time_elapsed":969274,"internal_node_id":"0.0-5.0-0.62"},{"rt":null,"stimulus":"<div style=\"width:400px; height: 400px; border-radius: 400px; background-color: #0000ff;\"></div>","response":null,"color":"#0000ff","task":"circle","trial_type":"html-keyboard-response","trial_index":317,"time_elapsed":969997,"internal_node_id":"0.0-5.0-0.63"},{"rt":null,"stimulus":"<div style=\"width:400px; height: 400px; border-radius: 400px; background-color: #8000ff;\"></div>","response":null,"color":"#8000ff","task":"circle","trial_type":"html-keyboard-response","trial_index":318,"time_elapsed":970725,"internal_node_id":"0.0-5.0-0.64"},{"rt":null,"stimulus":"<div style=\"width:400px; height: 400px; border-radius: 400px; background-color: #0000ff;\"></div>","response":null,"color":"#0000ff","task":"circle","trial_type":"html-keyboard-response","trial_index":319,"time_elapsed":971449,"internal_node_id":"0.0-5.0-0.65"},{"rt":null,"stimulus":"<div style=\"width:400px; height: 400px; border-radius: 400px; background-color: #0000ff;\"></div>","response":null,"color":"#0000ff","task":"circle","trial_type":"html-keyboard-response","trial_index":320,"time_elapsed":972173,"internal_node_id":"0.0-5.0-0.66"},{"rt":null,"stimulus":"<div style=\"width:400px; height: 400px; border-radius: 400px; background-color: #0000ff;\"></div>","response":null,"color":"#0000ff","task":"circle","trial_type":"html-keyboard-response","trial_index":321,"time_elapsed":972896,"internal_node_id":"0.0-5.0-0.67"},{"rt":null,"stimulus":"<div style=\"width:400px; height: 400px; border-radius: 400px; background-color: #0000ff;\"></div>","response":null,"color":"#0000ff","task":"circle","trial_type":"html-keyboard-response","trial_index":322,"time_elapsed":973623,"internal_node_id":"0.0-5.0-0.68"},{"rt":null,"stimulus":"<div style=\"width:400px; height: 400px; border-radius: 400px; background-color: #0000ff;\"></div>","response":null,"color":"#0000ff","task":"circle","trial_type":"html-keyboard-response","trial_index":323,"time_elapsed":974345,"internal_node_id":"0.0-5.0-0.69"},{"rt":null,"stimulus":"<div style=\"width:400px; height: 400px; border-radius: 400px; background-color: #0000ff;\"></div>","response":null,"color":"#0000ff","task":"circle","trial_type":"html-keyboard-response","trial_index":324,"time_elapsed":975070,"internal_node_id":"0.0-5.0-0.70"},{"rt":null,"stimulus":"<div style=\"width:400px; height: 400px; border-radius: 400px; background-color: #0000ff;\"></div>","response":null,"color":"#0000ff","task":"circle","trial_type":"html-keyboard-response","trial_index":325,"time_elapsed":975792,"internal_node_id":"0.0-5.0-0.71"},{"rt":null,"stimulus":"<div style=\"width:400px; height: 400px; border-radius: 400px; background-color: #0000ff;\"></div>","response":null,"color":"#0000ff","task":"circle","trial_type":"html-keyboard-response","trial_index":326,"time_elapsed":976519,"internal_node_id":"0.0-5.0-0.72"},{"rt":null,"stimulus":"<div style=\"width:400px; height: 400px; border-radius: 400px; background-color: #0000ff;\"></div>","response":null,"color":"#0000ff","task":"circle","trial_type":"html-keyboard-response","trial_index":327,"time_elapsed":977246,"internal_node_id":"0.0-5.0-0.73"},{"rt":null,"stimulus":"<div style=\"width:400px; height: 400px; border-radius: 400px; background-color: #8000ff;\"></div>","response":null,"color":"#8000ff","task":"circle","trial_type":"html-keyboard-response","trial_index":328,"time_elapsed":977971,"internal_node_id":"0.0-5.0-0.74"},{"rt":null,"stimulus":"<div style=\"width:400px; height: 400px; border-radius: 400px; background-color: #0000ff;\"></div>","response":null,"color":"#0000ff","task":"circle","trial_type":"html-keyboard-response","trial_index":329,"time_elapsed":978696,"internal_node_id":"0.0-5.0-0.75"},{"rt":null,"stimulus":"<div style=\"width:400px; height: 400px; border-radius: 400px; background-color: #ffaa00;\"></div>","response":null,"color":"#ffaa00","task":"circle","trial_type":"html-keyboard-response","trial_index":330,"time_elapsed":979425,"internal_node_id":"0.0-5.0-0.76"},{"rt":null,"stimulus":"<div style=\"width:400px; height: 400px; border-radius: 400px; background-color: #0000ff;\"></div>","response":null,"color":"#0000ff","task":"circle","trial_type":"html-keyboard-response","trial_index":331,"time_elapsed":980144,"internal_node_id":"0.0-5.0-0.77"},{"rt":null,"stimulus":"<div style=\"width:400px; height: 400px; border-radius: 400px; background-color: #0000ff;\"></div>","response":null,"color":"#0000ff","task":"circle","trial_type":"html-keyboard-response","trial_index":332,"time_elapsed":980868,"internal_node_id":"0.0-5.0-0.78"},{"rt":null,"stimulus":"<div style=\"width:400px; height: 400px; border-radius: 400px; background-color: #0000ff;\"></div>","response":null,"color":"#0000ff","task":"circle","trial_type":"html-keyboard-response","trial_index":333,"time_elapsed":981596,"internal_node_id":"0.0-5.0-0.79"},{"rt":null,"stimulus":"<div style=\"width:400px; height: 400px; border-radius: 400px; background-color: #0000ff;\"></div>","response":null,"color":"#0000ff","task":"circle","trial_type":"html-keyboard-response","trial_index":334,"time_elapsed":982321,"internal_node_id":"0.0-5.0-0.80"},{"rt":null,"stimulus":"<div style=\"width:400px; height: 400px; border-radius: 400px; background-color: #0000ff;\"></div>","response":null,"color":"#0000ff","task":"circle","trial_type":"html-keyboard-response","trial_index":335,"time_elapsed":983045,"internal_node_id":"0.0-5.0-0.81"},{"rt":null,"stimulus":"<div style=\"width:400px; height: 400px; border-radius: 400px; background-color: #0000ff;\"></div>","response":null,"color":"#0000ff","task":"circle","trial_type":"html-keyboard-response","trial_index":336,"time_elapsed":983762,"internal_node_id":"0.0-5.0-0.82"},{"rt":null,"stimulus":"<div style=\"width:400px; height: 400px; border-radius: 400px; background-color: #0000ff;\"></div>","response":null,"color":"#0000ff","task":"circle","trial_type":"html-keyboard-response","trial_index":337,"time_elapsed":984487,"internal_node_id":"0.0-5.0-0.83"},{"rt":null,"stimulus":"<div style=\"width:400px; height: 400px; border-radius: 400px; background-color: #ffaa00;\"></div>","response":null,"color":"#ffaa00","task":"circle","trial_type":"html-keyboard-response","trial_index":338,"time_elapsed":985211,"internal_node_id":"0.0-5.0-0.84"},{"rt":null,"stimulus":"<div style=\"width:400px; height: 400px; border-radius: 400px; background-color: #8000ff;\"></div>","response":null,"color":"#8000ff","task":"circle","trial_type":"html-keyboard-response","trial_index":339,"time_elapsed":985932,"internal_node_id":"0.0-5.0-0.85"},{"rt":null,"stimulus":"<div style=\"width:400px; height: 400px; border-radius: 400px; background-color: #0000ff;\"></div>","response":null,"color":"#0000ff","task":"circle","trial_type":"html-keyboard-response","trial_index":340,"time_elapsed":986653,"internal_node_id":"0.0-5.0-0.86"},{"rt":null,"stimulus":"<div style=\"width:400px; height: 400px; border-radius: 400px; background-color: #0000ff;\"></div>","response":null,"color":"#0000ff","task":"circle","trial_type":"html-keyboard-response","trial_index":341,"time_elapsed":987376,"internal_node_id":"0.0-5.0-0.87"},{"rt":null,"stimulus":"<div style=\"width:400px; height: 400px; border-radius: 400px; background-color: #0000ff;\"></div>","response":null,"color":"#0000ff","task":"circle","trial_type":"html-keyboard-response","trial_index":342,"time_elapsed":988101,"internal_node_id":"0.0-5.0-0.88"},{"rt":null,"stimulus":"<div style=\"width:400px; height: 400px; border-radius: 400px; background-color: #0000ff;\"></div>","response":null,"color":"#0000ff","task":"circle","trial_type":"html-keyboard-response","trial_index":343,"time_elapsed":988826,"internal_node_id":"0.0-5.0-0.89"},{"rt":null,"stimulus":"<div style=\"width:400px; height: 400px; border-radius: 400px; background-color: #0000ff;\"></div>","response":null,"color":"#0000ff","task":"circle","trial_type":"html-keyboard-response","trial_index":344,"time_elapsed":989552,"internal_node_id":"0.0-5.0-0.90"},{"rt":null,"stimulus":"<div style=\"width:400px; height: 400px; border-radius: 400px; background-color: #ffaa00;\"></div>","response":null,"color":"#ffaa00","task":"circle","trial_type":"html-keyboard-response","trial_index":345,"time_elapsed":990277,"internal_node_id":"0.0-5.0-0.91"},{"rt":null,"stimulus":"<div style=\"width:400px; height: 400px; border-radius: 400px; background-color: #0000ff;\"></div>","response":null,"color":"#0000ff","task":"circle","trial_type":"html-keyboard-response","trial_index":346,"time_elapsed":991006,"internal_node_id":"0.0-5.0-0.92"},{"rt":null,"stimulus":"<div style=\"width:400px; height: 400px; border-radius: 400px; background-color: #0000ff;\"></div>","response":null,"color":"#0000ff","task":"circle","trial_type":"html-keyboard-response","trial_index":347,"time_elapsed":991731,"internal_node_id":"0.0-5.0-0.93"},{"rt":null,"stimulus":"<div style=\"width:400px; height: 400px; border-radius: 400px; background-color: #0000ff;\"></div>","response":null,"color":"#0000ff","task":"circle","trial_type":"html-keyboard-response","trial_index":348,"time_elapsed":992461,"internal_node_id":"0.0-5.0-0.94"},{"rt":null,"stimulus":