[{"rt":1035608,"response":{"Q0":"03"},"task":"subject_id","trial_type":"survey-text","trial_index":0,"time_elapsed":1035629,"internal_node_id":"0.0-0.0"},{"rt":42913,"stimulus":"<div style=\"width:600px;\">\n        <p>A series of colored circles will appear. Most of the circles will be blue, but some will be orange and some will be purple.</p>\n        <p>Your task is to count the total number of orange and purple circles.</p>\n        <p>You do not need to keep track of the number of orange and purple separately. For example, if you have seen 3 purple circles and 1 orange circle you only need to report the number 4.</p>\n        <p>You'll complete 3 rounds, and each round will take about 3 minutes.</p>\n        <p>When you are ready for the first round, press the spacebar.</p>\n        </div>","response":" ","trial_type":"html-keyboard-response","trial_index":1,"time_elapsed":1078542,"internal_node_id":"0.0-1.0"},{"rt":null,"stimulus":"<div style=\"width:400px; height: 400px; border-radius: 400px; background-color: #0000ff;\"></div>","response":null,"color":"#0000ff","task":"circle","trial_type":"html-keyboard-response","trial_index":2,"time_elapsed":1079910,"internal_node_id":"0.0-2.0-0.0"},{"rt":null,"stimulus":"<div style=\"width:400px; height: 400px; border-radius: 400px; background-color: #0000ff;\"></div>","response":null,"color":"#0000ff","task":"circle","trial_type":"html-keyboard-response","trial_index":3,"time_elapsed":1080633,"internal_node_id":"0.0-2.0-0.1"},{"rt":null,"stimulus":"<div style=\"width:400px; height: 400px; border-radius: 400px; background-color: #0000ff;\"></div>","response":null,"color":"#0000ff","task":"circle","trial_type":"html-keyboard-response","trial_index":4,"time_elapsed":1081355,"internal_node_id":"0.0-2.0-0.2"},{"rt":null,"stimulus":"<div style=\"width:400px; height: 400px; border-radius: 400px; background-color: #0000ff;\"></div>","response":null,"color":"#0000ff","task":"circle","trial_type":"html-keyboard-response","trial_index":5,"time_elapsed":1082086,"internal_node_id":"0.0-2.0-0.3"},{"rt":null,"stimulus":"<div style=\"width:400px; height: 400px; border-radius: 400px; background-color: #ffaa00;\"></div>","response":null,"color":"#ffaa00","task":"circle","trial_type":"html-keyboard-response","trial_index":6,"time_elapsed":1082810,"internal_node_id":"0.0-2.0-0.4"},{"rt":null,"stimulus":"<div style=\"width:400px; height: 400px; border-radius: 400px; background-color: #0000ff;\"></div>","response":null,"color":"#0000ff","task":"circle","trial_type":"html-keyboard-response","trial_index":7,"time_elapsed":1083539,"internal_node_id":"0.0-2.0-0.5"},{"rt":null,"stimulus":"<div style=\"width:400px; height: 400px; border-radius: 400px; background-color: #8000ff;\"></div>","response":null,"color":"#8000ff","task":"circle","trial_type":"html-keyboard-response","trial_index":8,"time_elapsed":1084262,"internal_node_id":"0.0-2.0-0.6"},{"rt":null,"stimulus":"<div style=\"width:400px; height: 400px; border-radius: 400px; background-color: #0000ff;\"></div>","response":null,"color":"#0000ff","task":"circle","trial_type":"html-keyboard-response","trial_index":9,"time_elapsed":1084986,"internal_node_id":"0.0-2.0-0.7"},{"rt":null,"stimulus":"<div style=\"width:400px; height: 400px; border-radius: 400px; background-color: #0000ff;\"></div>","response":null,"color":"#0000ff","task":"circle","trial_type":"html-keyboard-response","trial_index":10,"time_elapsed":1085710,"internal_node_id":"0.0-2.0-0.8"},{"rt":null,"stimulus":"<div style=\"width:400px; height: 400px; border-radius: 400px; background-color: #0000ff;\"></div>","response":null,"color":"#0000ff","task":"circle","trial_type":"html-keyboard-response","trial_index":11,"time_elapsed":1086436,"internal_node_id":"0.0-2.0-0.9"},{"rt":null,"stimulus":"<div style=\"width:400px; height: 400px; border-radius: 400px; background-color: #0000ff;\"></div>","response":null,"color":"#0000ff","task":"circle","trial_type":"html-keyboard-response","trial_index":12,"time_elapsed":1087159,"internal_node_id":"0.0-2.0-0.10"},{"rt":null,"stimulus":"<div style=\"width:400px; height: 400px; border-radius: 400px; background-color: #0000ff;\"></div>","response":null,"color":"#0000ff","task":"circle","trial_type":"html-keyboard-response","trial_index":13,"time_elapsed":1087881,"internal_node_id":"0.0-2.0-0.11"},{"rt":null,"stimulus":"<div style=\"width:400px; height: 400px; border-radius: 400px; background-color: #0000ff;\"></div>","response":null,"color":"#0000ff","task":"circle","trial_type":"html-keyboard-response","trial_index":14,"time_elapsed":1088601,"internal_node_id":"0.0-2.0-0.12"},{"rt":null,"stimulus":"<div style=\"width:400px; height: 400px; border-radius: 400px; background-color: #ffaa00;\"></div>","response":null,"color":"#ffaa00","task":"circle","trial_type":"html-keyboard-response","trial_index":15,"time_elapsed":1089319,"internal_node_id":"0.0-2.0-0.13"},{"rt":null,"stimulus":"<div style=\"width:400px; height: 400px; border-radius: 400px; background-color: #0000ff;\"></div>","response":null,"color":"#0000ff","task":"circle","trial_type":"html-keyboard-response","trial_index":16,"time_elapsed":1090038,"internal_node_id":"0.0-2.0-0.14"},{"rt":null,"stimulus":"<div style=\"width:400px; height: 400px; border-radius: 400px; background-color: #0000ff;\"></div>","response":null,"color":"#0000ff","task":"circle","trial_type":"html-keyboard-response","trial_index":17,"time_elapsed":1090761,"internal_node_id":"0.0-2.0-0.15"},{"rt":null,"stimulus":"<div style=\"width:400px; height: 400px; border-radius: 400px; background-color: #0000ff;\"></div>","response":null,"color":"#0000ff","task":"circle","trial_type":"html-keyboard-response","trial_index":18,"time_elapsed":1091480,"internal_node_id":"0.0-2.0-0.16"},{"rt":null,"stimulus":"<div style=\"width:400px; height: 400px; border-radius: 400px; background-color: #8000ff;\"></div>","response":null,"color":"#8000ff","task":"circle","trial_type":"html-keyboard-response","trial_index":19,"time_elapsed":1092204,"internal_node_id":"0.0-2.0-0.17"},{"rt":null,"stimulus":"<div style=\"width:400px; height: 400px; border-radius: 400px; background-color: #0000ff;\"></div>","response":null,"color":"#0000ff","task":"circle","trial_type":"html-keyboard-response","trial_index":20,"time_elapsed":1092927,"internal_node_id":"0.0-2.0-0.18"},{"rt":null,"stimulus":"<div style=\"width:400px; height: 400px; border-radius: 400px; background-color: #0000ff;\"></div>","response":null,"color":"#0000ff","task":"circle","trial_type":"html-keyboard-response","trial_index":21,"time_elapsed":1093652,"internal_node_id":"0.0-2.0-0.19"},{"rt":null,"stimulus":"<div style=\"width:400px; height: 400px; border-radius: 400px; background-color: #0000ff;\"></div>","response":null,"color":"#0000ff","task":"circle","trial_type":"html-keyboard-response","trial_index":22,"time_elapsed":1094368,"internal_node_id":"0.0-2.0-0.20"},{"rt":null,"stimulus":"<div style=\"width:400px; height: 400px; border-radius: 400px; background-color: #0000ff;\"></div>","response":null,"color":"#0000ff","task":"circle","trial_type":"html-keyboard-response","trial_index":23,"time_elapsed":1095086,"internal_node_id":"0.0-2.0-0.21"},{"rt":null,"stimulus":"<div style=\"width:400px; height: 400px; border-radius: 400px; background-color: #0000ff;\"></div>","response":null,"color":"#0000ff","task":"circle","trial_type":"html-keyboard-response","trial_index":24,"time_elapsed":1095807,"internal_node_id":"0.0-2.0-0.22"},{"rt":null,"stimulus":"<div style=\"width:400px; height: 400px; border-radius: 400px; background-color: #0000ff;\"></div>","response":null,"color":"#0000ff","task":"circle","trial_type":"html-keyboard-response","trial_index":25,"time_elapsed":1096519,"internal_node_id":"0.0-2.0-0.23"},{"rt":null,"stimulus":"<div style=\"width:400px; height: 400px; border-radius: 400px; background-color: #0000ff;\"></div>","response":null,"color":"#0000ff","task":"circle","trial_type":"html-keyboard-response","trial_index":26,"time_elapsed":1097238,"internal_node_id":"0.0-2.0-0.24"},{"rt":null,"stimulus":"<div style=\"width:400px; height: 400px; border-radius: 400px; background-color: #0000ff;\"></div>","response":null,"color":"#0000ff","task":"circle","trial_type":"html-keyboard-response","trial_index":27,"time_elapsed":1097960,"internal_node_id":"0.0-2.0-0.25"},{"rt":null,"stimulus":"<div style=\"width:400px; height: 400px; border-radius: 400px; background-color: #0000ff;\"></div>","response":null,"color":"#0000ff","task":"circle","trial_type":"html-keyboard-response","trial_index":28,"time_elapsed":1098680,"internal_node_id":"0.0-2.0-0.26"},{"rt":null,"stimulus":"<div style=\"width:400px; height: 400px; border-radius: 400px; background-color: #ffaa00;\"></div>","response":null,"color":"#ffaa00","task":"circle","trial_type":"html-keyboard-response","trial_index":29,"time_elapsed":1099395,"internal_node_id":"0.0-2.0-0.27"},{"rt":null,"stimulus":"<div style=\"width:400px; height: 400px; border-radius: 400px; background-color: #0000ff;\"></div>","response":null,"color":"#0000ff","task":"circle","trial_type":"html-keyboard-response","trial_index":30,"time_elapsed":1100120,"internal_node_id":"0.0-2.0-0.28"},{"rt":null,"stimulus":"<div style=\"width:400px; height: 400px; border-radius: 400px; background-color: #8000ff;\"></div>","response":null,"color":"#8000ff","task":"circle","trial_type":"html-keyboard-response","trial_index":31,"time_elapsed":1100841,"internal_node_id":"0.0-2.0-0.29"},{"rt":null,"stimulus":"<div style=\"width:400px; height: 400px; border-radius: 400px; background-color: #0000ff;\"></div>","response":null,"color":"#0000ff","task":"circle","trial_type":"html-keyboard-response","trial_index":32,"time_elapsed":1101567,"internal_node_id":"0.0-2.0-0.30"},{"rt":null,"stimulus":"<div style=\"width:400px; height: 400px; border-radius: 400px; background-color: #0000ff;\"></div>","response":null,"color":"#0000ff","task":"circle","trial_type":"html-keyboard-response","trial_index":33,"time_elapsed":1102291,"internal_node_id":"0.0-2.0-0.31"},{"rt":null,"stimulus":"<div style=\"width:400px; height: 400px; border-radius: 400px; background-color: #8000ff;\"></div>","response":null,"color":"#8000ff","task":"circle","trial_type":"html-keyboard-response","trial_index":34,"time_elapsed":1103017,"internal_node_id":"0.0-2.0-0.32"},{"rt":null,"stimulus":"<div style=\"width:400px; height: 400px; border-radius: 400px; background-color: #0000ff;\"></div>","response":null,"color":"#0000ff","task":"circle","trial_type":"html-keyboard-response","trial_index":35,"time_elapsed":1103739,"internal_node_id":"0.0-2.0-0.33"},{"rt":null,"stimulus":"<div style=\"width:400px; height: 400px; border-radius: 400px; background-color: #0000ff;\"></div>","response":null,"color":"#0000ff","task":"circle","trial_type":"html-keyboard-response","trial_index":36,"time_elapsed":1104467,"internal_node_id":"0.0-2.0-0.34"},{"rt":null,"stimulus":"<div style=\"width:400px; height: 400px; border-radius: 400px; background-color: #0000ff;\"></div>","response":null,"color":"#0000ff","task":"circle","trial_type":"html-keyboard-response","trial_index":37,"time_elapsed":1105193,"internal_node_id":"0.0-2.0-0.35"},{"rt":null,"stimulus":"<div style=\"width:400px; height: 400px; border-radius: 400px; background-color: #0000ff;\"></div>","response":null,"color":"#0000ff","task":"circle","trial_type":"html-keyboard-response","trial_index":38,"time_elapsed":1105912,"internal_node_id":"0.0-2.0-0.36"},{"rt":null,"stimulus":"<div style=\"width:400px; height: 400px; border-radius: 400px; background-color: #0000ff;\"></div>","response":null,"color":"#0000ff","task":"circle","trial_type":"html-keyboard-response","trial_index":39,"time_elapsed":1106624,"internal_node_id":"0.0-2.0-0.37"},{"rt":null,"stimulus":"<div style=\"width:400px; height: 400px; border-radius: 400px; background-color: #ffaa00;\"></div>","response":null,"color":"#ffaa00","task":"circle","trial_type":"html-keyboard-response","trial_index":40,"time_elapsed":1107346,"internal_node_id":"0.0-2.0-0.38"},{"rt":null,"stimulus":"<div style=\"width:400px; height: 400px; border-radius: 400px; background-color: #0000ff;\"></div>","response":null,"color":"#0000ff","task":"circle","trial_type":"html-keyboard-response","trial_index":41,"time_elapsed":1108069,"internal_node_id":"0.0-2.0-0.39"},{"rt":null,"stimulus":"<div style=\"width:400px; height: 400px; border-radius: 400px; background-color: #0000ff;\"></div>","response":null,"color":"#0000ff","task":"circle","trial_type":"html-keyboard-response","trial_index":42,"time_elapsed":1108793,"internal_node_id":"0.0-2.0-0.40"},{"rt":null,"stimulus":"<div style=\"width:400px; height: 400px; border-radius: 400px; background-color: #0000ff;\"></div>","response":null,"color":"#0000ff","task":"circle","trial_type":"html-keyboard-response","trial_index":43,"time_elapsed":1109518,"internal_node_id":"0.0-2.0-0.41"},{"rt":null,"stimulus":"<div style=\"width:400px; height: 400px; border-radius: 400px; background-color: #8000ff;\"></div>","response":null,"color":"#8000ff","task":"circle","trial_type":"html-keyboard-response","trial_index":44,"time_elapsed":1110240,"internal_node_id":"0.0-2.0-0.42"},{"rt":null,"stimulus":"<div style=\"width:400px; height: 400px; border-radius: 400px; background-color: #0000ff;\"></div>","response":null,"color":"#0000ff","task":"circle","trial_type":"html-keyboard-response","trial_index":45,"time_elapsed":1110967,"internal_node_id":"0.0-2.0-0.43"},{"rt":null,"stimulus":"<div style=\"width:400px; height: 400px; border-radius: 400px; background-color: #0000ff;\"></div>","response":null,"color":"#0000ff","task":"circle","trial_type":"html-keyboard-response","trial_index":46,"time_elapsed":1111693,"internal_node_id":"0.0-2.0-0.44"},{"rt":null,"stimulus":"<div style=\"width:400px; height: 400px; border-radius: 400px; background-color: #0000ff;\"></div>","response":null,"color":"#0000ff","task":"circle","trial_type":"html-keyboard-response","trial_index":47,"time_elapsed":1112418,"internal_node_id":"0.0-2.0-0.45"},{"rt":null,"stimulus":"<div style=\"width:400px; height: 400px; border-radius: 400px; background-color: #ffaa00;\"></div>","response":null,"color":"#ffaa00","task":"circle","trial_type":"html-keyboard-response","trial_index":48,"time_elapsed":1113146,"internal_node_id":"0.0-2.0-0.46"},{"rt":null,"stimulus":"<div style=\"width:400px; height: 400px; border-radius: 400px; background-color: #0000ff;\"></div>","response":null,"color":"#0000ff","task":"circle","trial_type":"html-keyboard-response","trial_index":49,"time_elapsed":1113867,"internal_node_id":"0.0-2.0-0.47"},{"rt":null,"stimulus":"<div style=\"width:400px; height: 400px; border-radius: 400px; background-color: #0000ff;\"></div>","response":null,"color":"#0000ff","task":"circle","trial_type":"html-keyboard-response","trial_index":50,"time_elapsed":1114595,"internal_node_id":"0.0-2.0-0.48"},{"rt":null,"stimulus":"<div style=\"width:400px; height: 400px; border-radius: 400px; background-color: #0000ff;\"></div>","response":null,"color":"#0000ff","task":"circle","trial_type":"html-keyboard-response","trial_index":51,"time_elapsed":1115324,"internal_node_id":"0.0-2.0-0.49"},{"rt":null,"stimulus":"<div style=\"width:400px; height: 400px; border-radius: 400px; background-color: #0000ff;\"></div>","response":null,"color":"#0000ff","task":"circle","trial_type":"html-keyboard-response","trial_index":52,"time_elapsed":1116049,"internal_node_id":"0.0-2.0-0.50"},{"rt":null,"stimulus":"<div style=\"width:400px; height: 400px; border-radius: 400px; background-color: #0000ff;\"></div>","response":null,"color":"#0000ff","task":"circle","trial_type":"html-keyboard-response","trial_index":53,"time_elapsed":1116769,"internal_node_id":"0.0-2.0-0.51"},{"rt":null,"stimulus":"<div style=\"width:400px; height: 400px; border-radius: 400px; background-color: #0000ff;\"></div>","response":null,"color":"#0000ff","task":"circle","trial_type":"html-keyboard-response","trial_index":54,"time_elapsed":1117491,"internal_node_id":"0.0-2.0-0.52"},{"rt":null,"stimulus":"<div style=\"width:400px; height: 400px; border-radius: 400px; background-color: #0000ff;\"></div>","response":null,"color":"#0000ff","task":"circle","trial_type":"html-keyboard-response","trial_index":55,"time_elapsed":1118214,"internal_node_id":"0.0-2.0-0.53"},{"rt":null,"stimulus":"<div style=\"width:400px; height: 400px; border-radius: 400px; background-color: #8000ff;\"></div>","response":null,"color":"#8000ff","task":"circle","trial_type":"html-keyboard-response","trial_index":56,"time_elapsed":1118940,"internal_node_id":"0.0-2.0-0.54"},{"rt":null,"stimulus":"<div style=\"width:400px; height: 400px; border-radius: 400px; background-color: #0000ff;\"></div>","response":null,"color":"#0000ff","task":"circle","trial_type":"html-keyboard-response","trial_index":57,"time_elapsed":1119666,"internal_node_id":"0.0-2.0-0.55"},{"rt":null,"stimulus":"<div style=\"width:400px; height: 400px; border-radius: 400px; background-color: #0000ff;\"></div>","response":null,"color":"#0000ff","task":"circle","trial_type":"html-keyboard-response","trial_index":58,"time_elapsed":1120379,"internal_node_id":"0.0-2.0-0.56"},{"rt":null,"stimulus":"<div style=\"width:400px; height: 400px; border-radius: 400px; background-color: #ffaa00;\"></div>","response":null,"color":"#ffaa00","task":"circle","trial_type":"html-keyboard-response","trial_index":59,"time_elapsed":1121102,"internal_node_id":"0.0-2.0-0.57"},{"rt":null,"stimulus":"<div style=\"width:400px; height: 400px; border-radius: 400px; background-color: #0000ff;\"></div>","response":null,"color":"#0000ff","task":"circle","trial_type":"html-keyboard-response","trial_index":60,"time_elapsed":1121830,"internal_node_id":"0.0-2.0-0.58"},{"rt":null,"stimulus":"<div style=\"width:400px; height: 400px; border-radius: 400px; background-color: #0000ff;\"></div>","response":null,"color":"#0000ff","task":"circle","trial_type":"html-keyboard-response","trial_index":61,"time_elapsed":1122554,"internal_node_id":"0.0-2.0-0.59"},{"rt":null,"stimulus":"<div style=\"width:400px; height: 400px; border-radius: 400px; background-color: #0000ff;\"></div>","response":null,"color":"#0000ff","task":"circle","trial_type":"html-keyboard-response","trial_index":62,"time_elapsed":1123267,"internal_node_id":"0.0-2.0-0.60"},{"rt":null,"stimulus":"<div style=\"width:400px; height: 400px; border-radius: 400px; background-color: #ffaa00;\"></div>","response":null,"color":"#ffaa00","task":"circle","trial_type":"html-keyboard-response","trial_index":63,"time_elapsed":1123985,"internal_node_id":"0.0-2.0-0.61"},{"rt":null,"stimulus":"<div style=\"width:400px; height: 400px; border-radius: 400px; background-color: #0000ff;\"></div>","response":null,"color":"#0000ff","task":"circle","trial_type":"html-keyboard-response","trial_index":64,"time_elapsed":1124711,"internal_node_id":"0.0-2.0-0.62"},{"rt":null,"stimulus":"<div style=\"width:400px; height: 400px; border-radius: 400px; background-color: #0000ff;\"></div>","response":null,"color":"#0000ff","task":"circle","trial_type":"html-keyboard-response","trial_index":65,"time_elapsed":1125435,"internal_node_id":"0.0-2.0-0.63"},{"rt":null,"stimulus":"<div style=\"width:400px; height: 400px; border-radius: 400px; background-color: #0000ff;\"></div>","response":null,"color":"#0000ff","task":"circle","trial_type":"html-keyboard-response","trial_index":66,"time_elapsed":1126161,"internal_node_id":"0.0-2.0-0.64"},{"rt":null,"stimulus":"<div style=\"width:400px; height: 400px; border-radius: 400px; background-color: #0000ff;\"></div>","response":null,"color":"#0000ff","task":"circle","trial_type":"html-keyboard-response","trial_index":67,"time_elapsed":1126883,"internal_node_id":"0.0-2.0-0.65"},{"rt":null,"stimulus":"<div style=\"width:400px; height: 400px; border-radius: 400px; background-color: #0000ff;\"></div>","response":null,"color":"#0000ff","task":"circle","trial_type":"html-keyboard-response","trial_index":68,"time_elapsed":1127608,"internal_node_id":"0.0-2.0-0.66"},{"rt":null,"stimulus":"<div style=\"width:400px; height: 400px; border-radius: 400px; background-color: #0000ff;\"></div>","response":null,"color":"#0000ff","task":"circle","trial_type":"html-keyboard-response","trial_index":69,"time_elapsed":1128332,"internal_node_id":"0.0-2.0-0.67"},{"rt":null,"stimulus":"<div style=\"width:400px; height: 400px; border-radius: 400px; background-color: #0000ff;\"></div>","response":null,"color":"#0000ff","task":"circle","trial_type":"html-keyboard-response","trial_index":70,"time_elapsed":1129058,"internal_node_id":"0.0-2.0-0.68"},{"rt":null,"stimulus":"<div style=\"width:400px; height: 400px; border-radius: 400px; background-color: #8000ff;\"></div>","response":null,"color":"#8000ff","task":"circle","trial_type":"html-keyboard-response","trial_index":71,"time_elapsed":1129787,"internal_node_id":"0.0-2.0-0.69"},{"rt":null,"stimulus":"<div style=\"width:400px; height: 400px; border-radius: 400px; background-color: #0000ff;\"></div>","response":null,"color":"#0000ff","task":"circle","trial_type":"html-keyboard-response","trial_index":72,"time_elapsed":1130507,"internal_node_id":"0.0-2.0-0.70"},{"rt":null,"stimulus":"<div style=\"width:400px; height: 400px; border-radius: 400px; background-color: #0000ff;\"></div>","response":null,"color":"#0000ff","task":"circle","trial_type":"html-keyboard-response","trial_index":73,"time_elapsed":1131234,"internal_node_id":"0.0-2.0-0.71"},{"rt":null,"stimulus":"<div style=\"width:400px; height: 400px; border-radius: 400px; background-color: #0000ff;\"></div>","response":null,"color":"#0000ff","task":"circle","trial_type":"html-keyboard-response","trial_index":74,"time_elapsed":1131956,"internal_node_id":"0.0-2.0-0.72"},{"rt":null,"stimulus":"<div style=\"width:400px; height: 400px; border-radius: 400px; background-color: #ffaa00;\"></div>","response":null,"color":"#ffaa00","task":"circle","trial_type":"html-keyboard-response","trial_index":75,"time_elapsed":1132679,"internal_node_id":"0.0-2.0-0.73"},{"rt":null,"stimulus":"<div style=\"width:400px; height: 400px; border-radius: 400px; background-color: #0000ff;\"></div>","response":null,"color":"#0000ff","task":"circle","trial_type":"html-keyboard-response","trial_index":76,"time_elapsed":1133403,"internal_node_id":"0.0-2.0-0.74"},{"rt":null,"stimulus":"<div style=\"width:400px; height: 400px; border-radius: 400px; background-color: #0000ff;\"></div>","response":null,"color":"#0000ff","task":"circle","trial_type":"html-keyboard-response","trial_index":77,"time_elapsed":1134130,"internal_node_id":"0.0-2.0-0.75"},{"rt":null,"stimulus":"<div style=\"width:400px; height: 400px; border-radius: 400px; background-color: #8000ff;\"></div>","response":null,"color":"#8000ff","task":"circle","trial_type":"html-keyboard-response","trial_index":78,"time_elapsed":1134856,"internal_node_id":"0.0-2.0-0.76"},{"rt":null,"stimulus":"<div style=\"width:400px; height: 400px; border-radius: 400px; background-color: #0000ff;\"></div>","response":null,"color":"#0000ff","task":"circle","trial_type":"html-keyboard-response","trial_index":79,"time_elapsed":1135577,"internal_node_id":"0.0-2.0-0.77"},{"rt":null,"stimulus":"<div style=\"width:400px; height: 400px; border-radius: 400px; background-color: #0000ff;\"></div>","response":null,"color":"#0000ff","task":"circle","trial_type":"html-keyboard-response","trial_index":80,"time_elapsed":1136305,"internal_node_id":"0.0-2.0-0.78"},{"rt":null,"stimulus":"<div style=\"width:400px; height: 400px; border-radius: 400px; background-color: #0000ff;\"></div>","response":null,"color":"#0000ff","task":"circle","trial_type":"html-keyboard-response","trial_index":81,"time_elapsed":1137035,"internal_node_id":"0.0-2.0-0.79"},{"rt":null,"stimulus":"<div style=\"width:400px; height: 400px; border-radius: 400px; background-color: #0000ff;\"></div>","response":null,"color":"#0000ff","task":"circle","trial_type":"html-keyboard-response","trial_index":82,"time_elapsed":1137746,"internal_node_id":"0.0-2.0-0.80"},{"rt":null,"stimulus":"<div style=\"width:400px; height: 400px; border-radius: 400px; background-color: #0000ff;\"></div>","response":null,"color":"#0000ff","task":"circle","trial_type":"html-keyboard-response","trial_index":83,"time_elapsed":1138471,"internal_node_id":"0.0-2.0-0.81"},{"rt":null,"stimulus":"<div style=\"width:400px; height: 400px; border-radius: 400px; background-color: #0000ff;\"></div>","response":null,"color":"#0000ff","task":"circle","trial_type":"html-keyboard-response","trial_index":84,"time_elapsed":1139197,"internal_node_id":"0.0-2.0-0.82"},{"rt":null,"stimulus":"<div style=\"width:400px; height: 400px; border-radius: 400px; background-color: #8000ff;\"></div>","response":null,"color":"#8000ff","task":"circle","trial_type":"html-keyboard-response","trial_index":85,"time_elapsed":1139925,"internal_node_id":"0.0-2.0-0.83"},{"rt":null,"stimulus":"<div style=\"width:400px; height: 400px; border-radius: 400px; background-color: #ffaa00;\"></div>","response":null,"color":"#ffaa00","task":"circle","trial_type":"html-keyboard-response","trial_index":86,"time_elapsed":1140653,"internal_node_id":"0.0-2.0-0.84"},{"rt":null,"stimulus":"<div style=\"width:400px; height: 400px; border-radius: 400px; background-color: #0000ff;\"></div>","response":null,"color":"#0000ff","task":"circle","trial_type":"html-keyboard-response","trial_index":87,"time_elapsed":1141375,"internal_node_id":"0.0-2.0-0.85"},{"rt":null,"stimulus":"<div style=\"width:400px; height: 400px; border-radius: 400px; background-color: #0000ff;\"></div>","response":null,"color":"#0000ff","task":"circle","trial_type":"html-keyboard-response","trial_index":88,"time_elapsed":1142100,"internal_node_id":"0.0-2.0-0.86"},{"rt":null,"stimulus":"<div style=\"width:400px; height: 400px; border-radius: 400px; background-color: #0000ff;\"></div>","response":null,"color":"#0000ff","task":"circle","trial_type":"html-keyboard-response","trial_index":89,"time_elapsed":1142824,"internal_node_id":"0.0-2.0-0.87"},{"rt":null,"stimulus":"<div style=\"width:400px; height: 400px; border-radius: 400px; background-color: #0000ff;\"></div>","response":null,"color":"#0000ff","task":"circle","trial_type":"html-keyboard-response","trial_index":90,"time_elapsed":1143547,"internal_node_id":"0.0-2.0-0.88"},{"rt":null,"stimulus":"<div style=\"width:400px; height: 400px; border-radius: 400px; background-color: #0000ff;\"></div>","response":null,"color":"#0000ff","task":"circle","trial_type":"html-keyboard-response","trial_index":91,"time_elapsed":1144274,"internal_node_id":"0.0-2.0-0.89"},{"rt":null,"stimulus":"<div style=\"width:400px; height: 400px; border-radius: 400px; background-color: #0000ff;\"></div>","response":null,"color":"#0000ff","task":"circle","trial_type":"html-keyboard-response","trial_index":92,"time_elapsed":1144997,"internal_node_id":"0.0-2.0-0.90"},{"rt":null,"stimulus":"<div style=\"width:400px; height: 400px; border-radius: 400px; background-color: #0000ff;\"></div>","response":null,"color":"#0000ff","task":"circle","trial_type":"html-keyboard-response","trial_index":93,"time_elapsed":1145720,"internal_node_id":"0.0-2.0-0.91"},{"rt":null,"stimulus":"<div style=\"width:400px; height: 400px; border-radius: 400px; background-color: #0000ff;\"></div>","response":null,"color":"#0000ff","task":"circle","trial_type":"html-keyboard-response","trial_index":94,"time_elapsed":1146446,"internal_node_id":"0.0-2.0-0.92"},{"rt":null,"stimulus":"<div style=\"width:400px; height: 400px; border-radius: 400px; background-color: #0000ff;\"></div>","response":null,"color":"#0000ff","task":"circle","trial_type":"html-keyboard-response","trial_index":95,"time_elapsed":1147170,"internal_node_id":"0.0-2.0-0.93"},{"rt":null,"stimulus":"<div style=\"width:400px; height: 400px; border-radius: 400px; background-color: #0000ff;\"></div>","response":null,"color":"#0000ff","task":"circle","trial_type":"html-keyboard-response","trial_index":96,"time_elapsed":1147888,"internal_node_id":"0.0-2.0-0.94"},{"rt":null,"stimulus":"<div style=\"width:400px; height: 400px; border-radius: 400px; background-color: #0000ff;\"></div>","response":null,"color":"#0000ff","task":"circle","trial_type":"html-keyboard-response","trial_index":97,"time_elapsed":1148614,"internal_node_id":"0.0-2.0-0.95"},{"rt":null,"stimulus":"<div style=\"width:400px; height: 400px; border-radius: 400px; background-color: #0000ff;\"></div>","response":null,"color":"#0000ff","task":"circle","trial_type":"html-keyboard-response","trial_index":98,"time_elapsed":1149339,"internal_node_id":"0.0-2.0-0.96"},{"rt":null,"stimulus":"<div style=\"width:400px; height: 400px; border-radius: 400px; background-color: #0000ff;\"></div>","response":null,"color":"#0000ff","task":"circle","trial_type":"html-keyboard-response","trial_index":99,"time_elapsed":1150063,"internal_node_id":"0.0-2.0-0.97"},{"rt":null,"stimulus":"<div style=\"width:400px; height: 400px; border-radius: 400px; background-color: #8000ff;\"></div>","response":null,"color":"#8000ff","task":"circle","trial_type":"html-keyboard-response","trial_index":100,"time_elapsed":1150787,"internal_node_id":"0.0-2.0-0.98"},{"rt":null,"stimulus":"<div style=\"width:400px; height: 400px; border-radius: 400px; background-color: #ffaa00;\"></div>","response":null,"color":"#ffaa00","task":"circle","trial_type":"html-keyboard-response","trial_index":101,"time_elapsed":1151513,"internal_node_id":"0.0-2.0-0.99"},{"rt":null,"stimulus":"<div style=\"width:400px; height: 400px; border-radius: 400px; background-color: #8000ff;\"></div>","response":null,"color":"#8000ff","task":"circle","trial_type":"html-keyboard-response","trial_index":102,"time_elapsed":1152240,"internal_node_id":"0.0-2.0-0.100"},{"rt":null,"stimulus":"<div style=\"width:400px; height: 400px; border-radius: 400px; background-color: #0000ff;\"></div>","response":null,"color":"#0000ff","task":"circle","trial_type":"html-keyboard-response","trial_index":103,"time_elapsed":1152965,"internal_node_id":"0.0-2.0-0.101"},{"rt":null,"stimulus":"<div style=\"width:400px; height: 400px; border-radius: 400px; background-color: #0000ff;\"></div>","response":null,"color":"#0000ff","task":"circle","trial_type":"html-keyboard-response","trial_index":104,"time_elapsed":1153686,"internal_node_id":"0.0-2.0-0.102"},{"rt":null,"stimulus":"<div style=\"width:400px; height: 400px; border-radius: 400px; background-color: #0000ff;\"></div>","response":null,"color":"#0000ff","task":"circle","trial_type":"html-keyboard-response","trial_index":105,"time_elapsed":1154412,"internal_node_id":"0.0-2.0-0.103"},{"rt":null,"stimulus":"<div style=\"width:400px; height: 400px; border-radius: 400px; background-color: #0000ff;\"></div>","response":null,"color":"#0000ff","task":"circle","trial_type":"html-keyboard-response","trial_index":106,"time_elapsed":1155138,"internal_node_id":"0.0-2.0-0.104"},{"rt":null,"stimulus":"<div style=\"width:400px; height: 400px; border-radius: 400px; background-color: #0000ff;\"></div>","response":null,"color":"#0000ff","task":"circle","trial_type":"html-keyboard-response","trial_index":107,"time_elapsed":1155859,"internal_node_id":"0.0-2.0-0.105"},{"rt":null,"stimulus":"<div style=\"width:400px; height: 400px; border-radius: 400px; background-color: #ffaa00;\"></div>","response":null,"color":"#ffaa00","task":"circle","trial_type":"html-keyboard-response","trial_index":108,"time_elapsed":1156583,"internal_node_id":"0.0-2.0-0.106"},{"rt":null,"stimulus":"<div style=\"width:400px; height: 400px; border-radius: 400px; background-color: #0000ff;\"></div>","response":null,"color":"#0000ff","task":"circle","trial_type":"html-keyboard-response","trial_index":109,"time_elapsed":1157307,"internal_node_id":"0.0-2.0-0.107"},{"rt":null,"stimulus":"<div style=\"width:400px; height: 400px; border-radius: 400px; background-color: #0000ff;\"></div>","response":null,"color":"#0000ff","task":"circle","trial_type":"html-keyboard-response","trial_index":110,"time_elapsed":1158033,"internal_node_id":"0.0-2.0-0.108"},{"rt":null,"stimulus":"<div style=\"width:400px; height: 400px; border-radius: 400px; background-color: #0000ff;\"></div>","response":null,"color":"#0000ff","task":"circle","trial_type":"html-keyboard-response","trial_index":111,"time_elapsed":1158760,"internal_node_id":"0.0-2.0-0.109"},{"rt":null,"stimulus":"<div style=\"width:400px; height: 400px; border-radius: 400px; background-color: #0000ff;\"></div>","response":null,"color":"#0000ff","task":"circle","trial_type":"html-keyboard-response","trial_index":112,"time_elapsed":1159482,"internal_node_id":"0.0-2.0-0.110"},{"rt":null,"stimulus":"<div style=\"width:400px; height: 400px; border-radius: 400px; background-color: #0000ff;\"></div>","response":null,"color":"#0000ff","task":"circle","trial_type":"html-keyboard-response","trial_index":113,"time_elapsed":1160202,"internal_node_id":"0.0-2.0-0.111"},{"rt":null,"stimulus":"<div style=\"width:400px; height: 400px; border-radius: 400px; background-color: #8000ff;\"></div>","response":null,"color":"#8000ff","task":"circle","trial_type":"html-keyboard-response","trial_index":114,"time_elapsed":1160923,"internal_node_id":"0.0-2.0-0.112"},{"rt":null,"stimulus":"<div style=\"width:400px; height: 400px; border-radius: 400px; background-color: #ffaa00;\"></div>","response":null,"color":"#ffaa00","task":"circle","trial_type":"html-keyboard-response","trial_index":115,"time_elapsed":1161650,"internal_node_id":"0.0-2.0-0.113"},{"rt":null,"stimulus":"<div style=\"width:400px; height: 400px; border-radius: 400px; background-color: #0000ff;\"></div>","response":null,"color":"#0000ff","task":"circle","trial_type":"html-keyboard-response","trial_index":116,"time_elapsed":1162376,"internal_node_id":"0.0-2.0-0.114"},{"rt":null,"stimulus":"<div style=\"width:400px; height: 400px; border-radius: 400px; background-color: #0000ff;\"></div>","response":null,"color":"#0000ff","task":"circle","trial_type":"html-keyboard-response","trial_index":117,"time_elapsed":1163100,"internal_node_id":"0.0-2.0-0.115"},{"rt":null,"stimulus":"<div style=\"width:400px; height: 400px; border-radius: 400px; background-color: #0000ff;\"></div>","response":null,"color":"#0000ff","task":"circle","trial_type":"html-keyboard-response","trial_index":118,"time_elapsed":1163814,"internal_node_id":"0.0-2.0-0.116"},{"rt":null,"stimulus":"<div style=\"width:400px; height: 400px; border-radius: 400px; background-color: #0000ff;\"></div>","response":null,"color":"#0000ff","task":"circle","trial_type":"html-keyboard-response","trial_index":119,"time_elapsed":1164539,"internal_node_id":"0.0-2.0-0.117"},{"rt":null,"stimulus":"<div style=\"width:400px; height: 400px; border-radius: 400px; background-color: #0000ff;\"></div>","response":null,"color":"#0000ff","task":"circle","trial_type":"html-keyboard-response","trial_index":120,"time_elapsed":1165262,"internal_node_id":"0.0-2.0-0.118"},{"rt":null,"stimulus":"<div style=\"width:400px; height: 400px; border-radius: 400px; background-color: #0000ff;\"></div>","response":null,"color":"#0000ff","task":"circle","trial_type":"html-keyboard-response","trial_index":121,"time_elapsed":1165985,"internal_node_id":"0.0-2.0-0.119"},{"rt":null,"stimulus":"<div style=\"width:400px; height: 400px; border-radius: 400px; background-color: #0000ff;\"></div>","response":null,"color":"#0000ff","task":"circle","trial_type":"html-keyboard-response","trial_index":122,"time_elapsed":1166715,"internal_node_id":"0.0-2.0-0.120"},{"rt":null,"stimulus":"<div style=\"width:400px; height: 400px; border-radius: 400px; background-color: #0000ff;\"></div>","response":null,"color":"#0000ff","task":"circle","trial_type":"html-keyboard-response","trial_index":123,"time_elapsed":1167443,"internal_node_id":"0.0-2.0-0.121"},{"rt":null,"stimulus":"<div style=\"width:400px; height: 400px; border-radius: 400px; background-color: #ffaa00;\"></div>","response":null,"color":"#ffaa00","task":"circle","trial_type":"html-keyboard-response","trial_index":124,"time_elapsed":1168167,"internal_node_id":"0.0-2.0-0.122"},{"rt":null,"stimulus":"<div style=\"width:400px; height: 400px; border-radius: 400px; background-color: #0000ff;\"></div>","response":null,"color":"#0000ff","task":"circle","trial_type":"html-keyboard-response","trial_index":125,"time_elapsed":1168889,"internal_node_id":"0.0-2.0-0.123"},{"rt":null,"stimulus":"<div style=\"width:400px; height: 400px; border-radius: 400px; background-color: #0000ff;\"></div>","response":null,"color":"#0000ff","task":"circle","trial_type":"html-keyboard-response","trial_index":126,"time_elapsed":1169611,"internal_node_id":"0.0-2.0-0.124"},{"rt":null,"stimulus":"<div style=\"width:400px; height: 400px; border-radius: 400px; background-color: #0000ff;\"></div>","response":null,"color":"#0000ff","task":"circle","trial_type":"html-keyboard-response","trial_index":127,"time_elapsed":1170336,"internal_node_id":"0.0-2.0-0.125"},{"rt":null,"stimulus":"<div style=\"width:400px; height: 400px; border-radius: 400px; background-color: #8000ff;\"></div>","response":null,"color":"#8000ff","task":"circle","trial_type":"html-keyboard-response","trial_index":128,"time_elapsed":1171055,"internal_node_id":"0.0-2.0-0.126"},{"rt":null,"stimulus":"<div style=\"width:400px; height: 400px; border-radius: 400px; background-color: #0000ff;\"></div>","response":null,"color":"#0000ff","task":"circle","trial_type":"html-keyboard-response","trial_index":129,"time_elapsed":1171779,"internal_node_id":"0.0-2.0-0.127"},{"rt":null,"stimulus":"<div style=\"width:400px; height: 400px; border-radius: 400px; background-color: #0000ff;\"></div>","response":null,"color":"#0000ff","task":"circle","trial_type":"html-keyboard-response","trial_index":130,"time_elapsed":1172506,"internal_node_id":"0.0-2.0-0.128"},{"rt":null,"stimulus":"<div style=\"width:400px; height: 400px; border-radius: 400px; background-color: #0000ff;\"></div>","response":null,"color":"#0000ff","task":"circle","trial_type":"html-keyboard-response","trial_index":131,"time_elapsed":1173231,"internal_node_id":"0.0-2.0-0.129"},{"rt":null,"stimulus":"<div style=\"width:400px; height: 400px; border-radius: 400px; background-color: #ffaa00;\"></div>","response":null,"color":"#ffaa00","task":"circle","trial_type":"html-keyboard-response","trial_index":132,"time_elapsed":1173954,"internal_node_id":"0.0-2.0-0.130"},{"rt":null,"stimulus":"<div style=\"width:400px; height: 400px; border-radius: 400px; background-color: #0000ff;\"></div>","response":null,"color":"#0000ff","task":"circle","trial_type":"html-keyboard-response","trial_index":133,"time_elapsed":1174684,"internal_node_id":"0.0-2.0-0.131"},{"rt":null,"stimulus":"<div style=\"width:400px; height: 400px; border-radius: 400px; background-color: #0000ff;\"></div>","response":null,"color":"#0000ff","task":"circle","trial_type":"html-keyboard-response","trial_index":134,"time_elapsed":1175409,"internal_node_id":"0.0-2.0-0.132"},{"rt":null,"stimulus":"<div style=\"width:400px; height: 400px; border-radius: 400px; background-color: #0000ff;\"></div>","response":null,"color":"#0000ff","task":"circle","trial_type":"html-keyboard-response","trial_index":135,"time_elapsed":1176136,"internal_node_id":"0.0-2.0-0.133"},{"rt":null,"stimulus":"<div style=\"width:400px; height: 400px; border-radius: 400px; background-color: #0000ff;\"></div>","response":null,"color":"#0000ff","task":"circle","trial_type":"html-keyboard-response","trial_index":136,"time_elapsed":1176861,"internal_node_id":"0.0-2.0-0.134"},{"rt":null,"stimulus":"<div style=\"width:400px; height: 400px; border-radius: 400px; background-color: #0000ff;\"></div>","response":null,"color":"#0000ff","task":"circle","trial_type":"html-keyboard-response","trial_index":137,"time_elapsed":1177588,"internal_node_id":"0.0-2.0-0.135"},{"rt":null,"stimulus":"<div style=\"width:400px; height: 400px; border-radius: 400px; background-color: #8000ff;\"></div>","response":null,"color":"#8000ff","task":"circle","trial_type":"html-keyboard-response","trial_index":138,"time_elapsed":1178318,"internal_node_id":"0.0-2.0-0.136"},{"rt":null,"stimulus":"<div style=\"width:400px; height: 400px; border-radius: 400px; background-color: #0000ff;\"></div>","response":null,"color":"#0000ff","task":"circle","trial_type":"html-keyboard-response","trial_index":139,"time_elapsed":1179042,"internal_node_id":"0.0-2.0-0.137"},{"rt":null,"stimulus":"<div style=\"width:400px; height: 400px; border-radius: 400px; background-color: #0000ff;\"></div>","response":null,"color":"#0000ff","task":"circle","trial_type":"html-keyboard-response","trial_index":140,"time_elapsed":1179764,"internal_node_id":"0.0-2.0-0.138"},{"rt":null,"stimulus":"<div style=\"width:400px; height: 400px; border-radius: 400px; background-color: #0000ff;\"></div>","response":null,"color":"#0000ff","task":"circle","trial_type":"html-keyboard-response","trial_index":141,"time_elapsed":1180485,"internal_node_id":"0.0-2.0-0.139"},{"rt":null,"stimulus":"<div style=\"width:400px; height: 400px; border-radius: 400px; background-color: #0000ff;\"></div>","response":null,"color":"#0000ff","task":"circle","trial_type":"html-keyboard-response","trial_index":142,"time_elapsed":1181208,"internal_node_id":"0.0-2.0-0.140"},{"rt":null,"stimulus":"<div style=\"width:400px; height: 400px; border-radius: 400px; background-color: #ffaa00;\"></div>","response":null,"color":"#ffaa00","task":"circle","trial_type":"html-keyboard-response","trial_index":143,"time_elapsed":1181936,"internal_node_id":"0.0-2.0-0.141"},{"rt":null,"stimulus":"<div style=\"width:400px; height: 400px; border-radius: 400px; background-color: #0000ff;\"></div>","response":null,"color":"#0000ff","task":"circle","trial_type":"html-keyboard-response","trial_index":144,"time_elapsed":1182660,"internal_node_id":"0.0-2.0-0.142"},{"rt":null,"stimulus":"<div style=\"width:400px; height: 400px; border-radius: 400px; background-color: #0000ff;\"></div>","response":null,"color":"#0000ff","task":"circle","trial_type":"html-keyboard-response","trial_index":145,"time_elapsed":1183386,"internal_node_id":"0.0-2.0-0.143"},{"rt":null,"stimulus":"<div style=\"width:400px; height: 400px; border-radius: 400px; background-color: #0000ff;\"></div>","response":null,"color":"#0000ff","task":"circle","trial_type":"html-keyboard-response","trial_index":146,"time_elapsed":1184110,"internal_node_id":"0.0-2.0-0.144"},{"rt":null,"stimulus":"<div style=\"width:400px; height: 400px; border-radius: 400px; background-color: #8000ff;\"></div>","response":null,"color":"#8000ff","task":"circle","trial_type":"html-keyboard-response","trial_index":147,"time_elapsed":1184834,"internal_node_id":"0.0-2.0-0.145"},{"rt":null,"stimulus":"<div style=\"width:400px; height: 400px; border-radius: 400px; background-color: #0000ff;\"></div>","response":null,"color":"#0000ff","task":"circle","trial_type":"html-keyboard-response","trial_index":148,"time_elapsed":1185562,"internal_node_id":"0.0-2.0-0.146"},{"rt":null,"stimulus":"<div style=\"width:400px; height: 400px; border-radius: 400px; background-color: #0000ff;\"></div>","response":null,"color":"#0000ff","task":"circle","trial_type":"html-keyboard-response","trial_index":149,"time_elapsed":1186289,"internal_node_id":"0.0-2.0-0.147"},{"rt":null,"stimulus":"<div style=\"width:400px; height: 400px; border-radius: 400px; background-color: #0000ff;\"></div>","response":null,"color":"#0000ff","task":"circle","trial_type":"html-keyboard-response","trial_index":150,"time_elapsed":1187015,"internal_node_id":"0.0-2.0-0.148"},{"rt":null,"stimulus":"<div style=\"width:400px; height: 400px; border-radius: 400px; background-color: #0000ff;\"></div>","response":null,"color":"#0000ff","task":"circle","trial_type":"html-keyboard-response","trial_index":151,"time_elapsed":1187741,"internal_node_id":"0.0-2.0-0.149"},{"rt":null,"stimulus":"<div style=\"width:400px; height: 400px; border-radius: 400px; background-color: #0000ff;\"></div>","response":null,"color":"#0000ff","task":"circle","trial_type":"html-keyboard-response","trial_index":152,"time_elapsed":1188471,"internal_node_id":"0.0-2.0-0.150"},{"rt":null,"stimulus":"<div style=\"width:400px; height: 400px; border-radius: 400px; background-color: #0000ff;\"></div>","response":null,"color":"#0000ff","task":"circle","trial_type":"html-keyboard-response","trial_index":153,"time_elapsed":1189195,"internal_node_id":"0.0-2.0-0.151"},{"rt":null,"stimulus":"<div style=\"width:400px; height: 400px; border-radius: 400px; background-color: #0000ff;\"></div>","response":null,"color":"#0000ff","task":"circle","trial_type":"html-keyboard-response","trial_index":154,"time_elapsed":1189923,"internal_node_id":"0.0-2.0-0.152"},{"rt":null,"stimulus":"<div style=\"width:400px; height: 400px; border-radius: 400px; background-color: #0000ff;\"></div>","response":null,"color":"#0000ff","task":"circle","trial_type":"html-keyboard-response","trial_index":155,"time_elapsed":1190645,"internal_node_id":"0.0-2.0-0.153"},{"rt":null,"stimulus":"<div style=\"width:400px; height: 400px; border-radius: 400px; background-color: #ffaa00;\"></div>","response":null,"color":"#ffaa00","task":"circle","trial_type":"html-keyboard-response","trial_index":156,"time_elapsed":1191370,"internal_node_id":"0.0-2.0-0.154"},{"rt":null,"stimulus":"<div style=\"width:400px; height: 400px; border-radius: 400px; background-color: #8000ff;\"></div>","response":null,"color":"#8000ff","task":"circle","trial_type":"html-keyboard-response","trial_index":157,"time_elapsed":1192099,"internal_node_id":"0.0-2.0-0.155"},{"rt":null,"stimulus":"<div style=\"width:400px; height: 400px; border-radius: 400px; background-color: #0000ff;\"></div>","response":null,"color":"#0000ff","task":"circle","trial_type":"html-keyboard-response","trial_index":158,"time_elapsed":1192821,"internal_node_id":"0.0-2.0-0.156"},{"rt":null,"stimulus":"<div style=\"width:400px; height: 400px; border-radius: 400px; background-color: #0000ff;\"></div>","response":null,"color":"#0000ff","task":"circle","trial_type":"html-keyboard-response","trial_index":159,"time_elapsed":1193546,"internal_node_id":"0.0-2.0-0.157"},{"rt":null,"stimulus":"<div style=\"width:400px; height: 400px; border-radius: 400px; background-color: #0000ff;\"></div>","response":null,"color":"#0000ff","task":"circle","trial_type":"html-keyboard-response","trial_index":160,"time_elapsed":1194265,"internal_node_id":"0.0-2.0-0.158"},{"rt":null,"stimulus":"<div style=\"width:400px; height: 400px; border-radius: 400px; background-color: #0000ff;\"></div>","response":null,"color":"#0000ff","task":"circle","trial_type":"html-keyboard-response","trial_index":161,"time_elapsed":1194987,"internal_node_id":"0.0-2.0-0.159"},{"rt":null,"stimulus":"<div style=\"width:400px; height: 400px; border-radius: 400px; background-color: #0000ff;\"></div>","response":null,"color":"#0000ff","task":"circle","trial_type":"html-keyboard-response","trial_index":162,"time_elapsed":1195712,"internal_node_id":"0.0-2.0-0.160"},{"rt":null,"stimulus":"<div style=\"width:400px; height: 400px; border-radius: 400px; background-color: #0000ff;\"></div>","response":null,"color":"#0000ff","task":"circle","trial_type":"html-keyboard-response","trial_index":163,"time_elapsed":1196437,"internal_node_id":"0.0-2.0-0.161"},{"rt":null,"stimulus":"<div style=\"width:400px; height: 400px; border-radius: 400px; background-color: #8000ff;\"></div>","response":null,"color":"#8000ff","task":"circle","trial_type":"html-keyboard-response","trial_index":164,"time_elapsed":1197159,"internal_node_id":"0.0-2.0-0.162"},{"rt":null,"stimulus":"<div style=\"width:400px; height: 400px; border-radius: 400px; background-color: #0000ff;\"></div>","response":null,"color":"#0000ff","task":"circle","trial_type":"html-keyboard-response","trial_index":165,"time_elapsed":1197883,"internal_node_id":"0.0-2.0-0.163"},{"rt":null,"stimulus":"<div style=\"width:400px; height: 400px; border-radius: 400px; background-color: #0000ff;\"></div>","response":null,"color":"#0000ff","task":"circle","trial_type":"html-keyboard-response","trial_index":166,"time_elapsed":1198602,"internal_node_id":"0.0-2.0-0.164"},{"rt":null,"stimulus":"<div style=\"width:400px; height: 400px; border-radius: 400px; background-color: #ffaa00;\"></div>","response":null,"color":"#ffaa00","task":"circle","trial_type":"html-keyboard-response","trial_index":167,"time_elapsed":1199332,"internal_node_id":"0.0-2.0-0.165"},{"rt":null,"stimulus":"<div style=\"width:400px; height: 400px; border-radius: 400px; background-color: #0000ff;\"></div>","response":null,"color":"#0000ff","task":"circle","trial_type":"html-keyboard-response","trial_index":168,"time_elapsed":1200054,"internal_node_id":"0.0-2.0-0.166"},{"rt":null,"stimulus":"<div style=\"width:400px; height: 400px; border-radius: 400px; background-color: #0000ff;\"></div>","response":null,"color":"#0000ff","task":"circle","trial_type":"html-keyboard-response","trial_index":169,"time_elapsed":1200775,"internal_node_id":"0.0-2.0-0.167"},{"rt":null,"stimulus":"<div style=\"width:400px; height: 400px; border-radius: 400px; background-color: #0000ff;\"></div>","response":null,"color":"#0000ff","task":"circle","trial_type":"html-keyboard-response","trial_index":170,"time_elapsed":1201502,"internal_node_id":"0.0-2.0-0.168"},{"rt":null,"stimulus":"<div style=\"width:400px; height: 400px; border-radius: 400px; background-color: #0000ff;\"></div>","response":null,"color":"#0000ff","task":"circle","trial_type":"html-keyboard-response","trial_index":171,"time_elapsed":1202225,"internal_node_id":"0.0-2.0-0.169"},{"rt":null,"stimulus":"<div style=\"width:400px; height: 400px; border-radius: 400px; background-color: #8000ff;\"></div>","response":null,"color":"#8000ff","task":"circle","trial_type":"html-keyboard-response","trial_index":172,"time_elapsed":1202952,"internal_node_id":"0.0-2.0-0.170"},{"rt":null,"stimulus":"<div style=\"width:400px; height: 400px; border-radius: 400px; background-color: #0000ff;\"></div>","response":null,"color":"#0000ff","task":"circle","trial_type":"html-keyboard-response","trial_index":173,"time_elapsed":1203676,"internal_node_id":"0.0-2.0-0.171"},{"rt":null,"stimulus":"<div style=\"width:400px; height: 400px; border-radius: 400px; background-color: #0000ff;\"></div>","response":null,"color":"#0000ff","task":"circle","trial_type":"html-keyboard-response","trial_index":174,"time_elapsed":1204401,"internal_node_id":"0.0-2.0-0.172"},{"rt":null,"stimulus":"<div style=\"width:400px; height: 400px; border-radius: 400px; background-color: #0000ff;\"></div>","response":null,"color":"#0000ff","task":"circle","trial_type":"html-keyboard-response","trial_index":175,"time_elapsed":1205124,"internal_node_id":"0.0-2.0-0.173"},{"rt":null,"stimulus":"<div style=\"width:400px; height: 400px; border-radius: 400px; background-color: #0000ff;\"></div>","response":null,"color":"#0000ff","task":"circle","trial_type":"html-keyboard-response","trial_index":176,"time_elapsed":1205850,"internal_node_id":"0.0-2.0-0.174"},{"rt":null,"stimulus":"<div style=\"width:400px; height: 400px; border-radius: 400px; background-color: #0000ff;\"></div>","response":null,"color":"#0000ff","task":"circle","trial_type":"html-keyboard-response","trial_index":177,"time_elapsed":1206572,"internal_node_id":"0.0-2.0-0.175"},{"rt":null,"stimulus":"<div style=\"width:400px; height: 400px; border-radius: 400px; background-color: #0000ff;\"></div>","response":null,"color":"#0000ff","task":"circle","trial_type":"html-keyboard-response","trial_index":178,"time_elapsed":1207295,"internal_node_id":"0.0-2.0-0.176"},{"rt":null,"stimulus":"<div style=\"width:400px; height: 400px; border-radius: 400px; background-color: #ffaa00;\"></div>","response":null,"color":"#ffaa00","task":"circle","trial_type":"html-keyboard-response","trial_index":179,"time_elapsed":1208021,"internal_node_id":"0.0-2.0-0.177"},{"rt":null,"stimulus":"<div style=\"width:400px; height: 400px; border-radius: 400px; background-color: #0000ff;\"></div>","response":null,"color":"#0000ff","task":"circle","trial_type":"html-keyboard-response","trial_index":180,"time_elapsed":1208746,"internal_node_id":"0.0-2.0-0.178"},{"rt":null,"stimulus":"<div style=\"width:400px; height: 400px; border-radius: 400px; background-color: #0000ff;\"></div>","response":null,"color":"#0000ff","task":"circle","trial_type":"html-keyboard-response","trial_index":181,"time_elapsed":1209469,"internal_node_id":"0.0-2.0-0.179"},{"rt":null,"stimulus":"<div style=\"width:400px; height: 400px; border-radius: 400px; background-color: #0000ff;\"></div>","response":null,"color":"#0000ff","task":"circle","trial_type":"html-keyboard-response","trial_index":182,"time_elapsed":1210197,"internal_node_id":"0.0-2.0-0.180"},{"rt":null,"stimulus":"<div style=\"width:400px; height: 400px; border-radius: 400px; background-color: #0000ff;\"></div>","response":null,"color":"#0000ff","task":"circle","trial_type":"html-keyboard-response","trial_index":183,"time_elapsed":1210921,"internal_node_id":"0.0-2.0-0.181"},{"rt":null,"stimulus":"<div style=\"width:400px; height: 400px; border-radius: 400px; background-color: #0000ff;\"></div>","response":null,"color":"#0000ff","task":"circle","trial_type":"html-keyboard-response","trial_index":184,"time_elapsed":1211643,"internal_node_id":"0.0-2.0-0.182"},{"rt":null,"stimulus":"<div style=\"width:400px; height: 400px; border-radius: 400px; background-color: #0000ff;\"></div>","response":null,"color":"#0000ff","task":"circle","trial_type":"html-keyboard-response","trial_index":185,"time_elapsed":1212370,"internal_node_id":"0.0-2.0-0.183"},{"rt":null,"stimulus":"<div style=\"width:400px; height: 400px; border-radius: 400px; background-color: #0000ff;\"></div>","response":null,"color":"#0000ff","task":"circle","trial_type":"html-keyboard-response","trial_index":186,"time_elapsed":1213095,"internal_node_id":"0.0-2.0-0.184"},{"rt":null,"stimulus":"<div style=\"width:400px; height: 400px; border-radius: 400px; background-color: #ffaa00;\"></div>","response":null,"color":"#ffaa00","task":"circle","trial_type":"html-keyboard-response","trial_index":187,"time_elapsed":1213819,"internal_node_id":"0.0-2.0-0.185"},{"rt":null,"stimulus":"<div style=\"width:400px; height: 400px; border-radius: 400px; background-color: #0000ff;\"></div>","response":null,"color":"#0000ff","task":"circle","trial_type":"html-keyboard-response","trial_index":188,"time_elapsed":1214543,"internal_node_id":"0.0-2.0-0.186"},{"rt":null,"stimulus":"<div style=\"width:400px; height: 400px; border-radius: 400px; background-color: #0000ff;\"></div>","response":null,"color":"#0000ff","task":"circle","trial_type":"html-keyboard-response","trial_index":189,"time_elapsed":1215269,"internal_node_id":"0.0-2.0-0.187"},{"rt":null,"stimulus":"<div style=\"width:400px; height: 400px; border-radius: 400px; background-color: #0000ff;\"></div>","response":null,"color":"#0000ff","task":"circle","trial_type":"html-keyboard-response","trial_index":190,"time_elapsed":1215980,"internal_node_id":"0.0-2.0-0.188"},{"rt":null,"stimulus":"<div style=\"width:400px; height: 400px; border-radius: 400px; background-color: #8000ff;\"></div>","response":null,"color":"#8000ff","task":"circle","trial_type":"html-keyboard-response","trial_index":191,"time_elapsed":1216708,"internal_node_id":"0.0-2.0-0.189"},{"rt":null,"stimulus":"<div style=\"width:400px; height: 400px; border-radius: 400px; background-color: #0000ff;\"></div>","response":null,"color":"#0000ff","task":"circle","trial_type":"html-keyboard-response","trial_index":192,"time_elapsed":1217435,"internal_node_id":"0.0-2.0-0.190"},{"rt":null,"stimulus":"<div style=\"width:400px; height: 400px; border-radius: 400px; background-color: #0000ff;\"></div>","response":null,"color":"#0000ff","task":"circle","trial_type":"html-keyboard-response","trial_index":193,"time_elapsed":1218157,"internal_node_id":"0.0-2.0-0.191"},{"rt":null,"stimulus":"<div style=\"width:400px; height: 400px; border-radius: 400px; background-color: #0000ff;\"></div>","response":null,"color":"#0000ff","task":"circle","trial_type":"html-keyboard-response","trial_index":194,"time_elapsed":1218882,"internal_node_id":"0.0-2.0-0.192"},{"rt":null,"stimulus":"<div style=\"width:400px; height: 400px; border-radius: 400px; background-color: #0000ff;\"></div>","response":null,"color":"#0000ff","task":"circle","trial_type":"html-keyboard-response","trial_index":195,"time_elapsed":1219612,"internal_node_id":"0.0-2.0-0.193"},{"rt":null,"stimulus":"<div style=\"width:400px; height: 400px; border-radius: 400px; background-color: #0000ff;\"></div>","response":null,"color":"#0000ff","task":"circle","trial_type":"html-keyboard-response","trial_index":196,"time_elapsed":1220337,"internal_node_id":"0.0-2.0-0.194"},{"rt":null,"stimulus":"<div style=\"width:400px; height: 400px; border-radius: 400px; background-color: #0000ff;\"></div>","response":null,"color":"#0000ff","task":"circle","trial_type":"html-keyboard-response","trial_index":197,"time_elapsed":1221063,"internal_node_id":"0.0-2.0-0.195"},{"rt":null,"stimulus":"<div style=\"width:400px; height: 400px; border-radius: 400px; background-color: #ffaa00;\"></div>","response":null,"color":"#ffaa00","task":"circle","trial_type":"html-keyboard-response","trial_index":198,"time_elapsed":1221789,"internal_node_id":"0.0-2.0-0.196"},{"rt":null,"stimulus":"<div style=\"width:400px; height: 400px; border-radius: 400px; background-color: #0000ff;\"></div>","response":null,"color":"#0000ff","task":"circle","trial_type":"html-keyboard-response","trial_index":199,"time_elapsed":1222516,"internal_node_id":"0.0-2.0-0.197"},{"rt":null,"stimulus":"<div style=\"width:400px; height: 400px; border-radius: 400px; background-color: #8000ff;\"></div>","response":null,"color":"#8000ff","task":"circle","trial_type":"html-keyboard-response","trial_index":200,"time_elapsed":1223243,"internal_node_id":"0.0-2.0-0.198"},{"rt":null,"stimulus":"<div style=\"width:400px; height: 400px; border-radius: 400px; background-color: #0000ff;\"></div>","response":null,"color":"#0000ff","task":"circle","trial_type":"html-keyboard-response","trial_index":201,"time_elapsed":1223966,"internal_node_id":"0.0-2.0-0.199"},{"rt":null,"stimulus":"<div style=\"width:400px; height: 400px; border-radius: 400px; background-color: #0000ff;\"></div>","response":null,"color":"#0000ff","task":"circle","trial_type":"html-keyboard-response","trial_index":202,"time_elapsed":1224689,"internal_node_id":"0.0-2.0-0.200"},{"rt":null,"stimulus":"<div style=\"width:400px; height: 400px; border-radius: 400px; background-color: #8000ff;\"></div>","response":null,"color":"#8000ff","task":"circle","trial_type":"html-keyboard-response","trial_index":203,"time_elapsed":1225412,"internal_node_id":"0.0-2.0-0.201"},{"rt":null,"stimulus":"<div style=\"width:400px; height: 400px; border-radius: 400px; background-color: #0000ff;\"></div>","response":null,"color":"#0000ff","task":"circle","trial_type":"html-keyboard-response","trial_index":204,"time_elapsed":1226137,"internal_node_id":"0.0-2.0-0.202"},{"rt":null,"stimulus":"<div style=\"width:400px; height: 400px; border-radius: 400px; background-color: #0000ff;\"></div>","response":null,"color":"#0000ff","task":"circle","trial_type":"html-keyboard-response","trial_index":205,"time_elapsed":1226861,"internal_node_id":"0.0-2.0-0.203"},{"rt":null,"stimulus":"<div style=\"width:400px; height: 400px; border-radius: 400px; background-color: #0000ff;\"></div>","response":null,"color":"#0000ff","task":"circle","trial_type":"html-keyboard-response","trial_index":206,"time_elapsed":1227586,"internal_node_id":"0.0-2.0-0.204"},{"rt":null,"stimulus":"<div style=\"width:400px; height: 400px; border-radius: 400px; background-color: #0000ff;\"></div>","response":null,"color":"#0000ff","task":"circle","trial_type":"html-keyboard-response","trial_index":207,"time_elapsed":1228310,"internal_node_id":"0.0-2.0-0.205"},{"rt":null,"stimulus":"<div style=\"width:400px; height: 400px; border-radius: 400px; background-color: #0000ff;\"></div>","response":null,"color":"#0000ff","task":"circle","trial_type":"html-keyboard-response","trial_index":208,"time_elapsed":1229035,"internal_node_id":"0.0-2.0-0.206"},{"rt":null,"stimulus":"<div style=\"width:400px; height: 400px; border-radius: 400px; background-color: #ffaa00;\"></div>","response":null,"color":"#ffaa00","task":"circle","trial_type":"html-keyboard-response","trial_index":209,"time_elapsed":1229757,"internal_node_id":"0.0-2.0-0.207"},{"rt":null,"stimulus":"<div style=\"width:400px; height: 400px; border-radius: 400px; background-color: #0000ff;\"></div>","response":null,"color":"#0000ff","task":"circle","trial_type":"html-keyboard-response","trial_index":210,"time_elapsed":1230482,"internal_node_id":"0.0-2.0-0.208"},{"rt":null,"stimulus":"<div style=\"width:400px; height: 400px; border-radius: 400px; background-color: #0000ff;\"></div>","response":null,"color":"#0000ff","task":"circle","trial_type":"html-keyboard-response","trial_index":211,"time_elapsed":1231208,"internal_node_id":"0.0-2.0-0.209"},{"rt":null,"stimulus":"<div style=\"width:400px; height: 400px; border-radius: 400px; background-color: #0000ff;\"></div>","response":null,"color":"#0000ff","task":"circle","trial_type":"html-keyboard-response","trial_index":212,"time_elapsed":1231933,"internal_node_id":"0.0-2.0-0.210"},{"rt":null,"stimulus":"<div style=\"width:400px; height: 400px; border-radius: 400px; background-color: #0000ff;\"></div>","response":null,"color":"#0000ff","task":"circle","trial_type":"html-keyboard-response","trial_index":213,"time_elapsed":1232658,"internal_node_id":"0.0-2.0-0.211"},{"rt":null,"stimulus":"<div style=\"width:400px; height: 400px; border-radius: 400px; background-color: #0000ff;\"></div>","response":null,"color":"#0000ff","task":"circle","trial_type":"html-keyboard-response","trial_index":214,"time_elapsed":1233383,"internal_node_id":"0.0-2.0-0.212"},{"rt":null,"stimulus":"<div style=\"width:400px; height: 400px; border-radius: 400px; background-color: #ffaa00;\"></div>","response":null,"color":"#ffaa00","task":"circle","trial_type":"html-keyboard-response","trial_index":215,"time_elapsed":1234109,"internal_node_id":"0.0-2.0-0.213"},{"rt":null,"stimulus":"<div style=\"width:400px; height: 400px; border-radius: 400px; background-color: #0000ff;\"></div>","response":null,"color":"#0000ff","task":"circle","trial_type":"html-keyboard-response","trial_index":216,"time_elapsed":1234835,"internal_node_id":"0.0-2.0-0.214"},{"rt":null,"stimulus":"<div style=\"width:400px; height: 400px; border-radius: 400px; background-color: #0000ff;\"></div>","response":null,"color":"#0000ff","task":"circle","trial_type":"html-keyboard-response","trial_index":217,"time_elapsed":1235558,"internal_node_id":"0.0-2.0-0.215"},{"rt":null,"stimulus":"<div style=\"width:400px; height: 400px; border-radius: 400px; background-color: #0000ff;\"></div>","response":null,"color":"#0000ff","task":"circle","trial_type":"html-keyboard-response","trial_index":218,"time_elapsed":1236282,"internal_node_id":"0.0-2.0-0.216"},{"rt":null,"stimulus":"<div style=\"width:400px; height: 400px; border-radius: 400px; background-color: #0000ff;\"></div>","response":null,"color":"#0000ff","task":"circle","trial_type":"html-keyboard-response","trial_index":219,"time_elapsed":1237005,"internal_node_id":"0.0-2.0-0.217"},{"rt":null,"stimulus":"<div style=\"width:400px; height: 400px; border-radius: 400px; background-color: #8000ff;\"></div>","response":null,"color":"#8000ff","task":"circle","trial_type":"html-keyboard-response","trial_index":220,"time_elapsed":1237731,"internal_node_id":"0.0-2.0-0.218"},{"rt":null,"stimulus":"<div style=\"width:400px; height: 400px; border-radius: 400px; background-color: #0000ff;\"></div>","response":null,"color":"#0000ff","task":"circle","trial_type":"html-keyboard-response","trial_index":221,"time_elapsed":1238458,"internal_node_id":"0.0-2.0-0.219"},{"rt":null,"stimulus":"<div style=\"width:400px; height: 400px; border-radius: 400px; background-color: #0000ff;\"></div>","response":null,"color":"#0000ff","task":"circle","trial_type":"html-keyboard-response","trial_index":222,"time_elapsed":1239174,"internal_node_id":"0.0-2.0-0.220"},{"rt":null,"stimulus":"<div style=\"width:400px; height: 400px; border-radius: 400px; background-color: #0000ff;\"></div>","response":null,"color":"#0000ff","task":"circle","trial_type":"html-keyboard-response","trial_index":223,"time_elapsed":1239903,"internal_node_id":"0.0-2.0-0.221"},{"rt":null,"stimulus":"<div style=\"width:400px; height: 400px; border-radius: 400px; background-color: #0000ff;\"></div>","response":null,"color":"#0000ff","task":"circle","trial_type":"html-keyboard-response","trial_index":224,"time_elapsed":1240624,"internal_node_id":"0.0-2.0-0.222"},{"rt":null,"stimulus":"<div style=\"width:400px; height: 400px; border-radius: 400px; background-color: #0000ff;\"></div>","response":null,"color":"#0000ff","task":"circle","trial_type":"html-keyboard-response","trial_index":225,"time_elapsed":1241346,"internal_node_id":"0.0-2.0-0.223"},{"rt":null,"stimulus":"<div style=\"width:400px; height: 400px; border-radius: 400px; background-color: #0000ff;\"></div>","response":null,"color":"#0000ff","task":"circle","trial_type":"html-keyboard-response","trial_index":226,"time_elapsed":1242065,"internal_node_id":"0.0-2.0-0.224"},{"rt":null,"stimulus":"<div style=\"width:400px; height: 400px; border-radius: 400px; background-color: #8000ff;\"></div>","response":null,"color":"#8000ff","task":"circle","trial_type":"html-keyboard-response","trial_index":227,"time_elapsed":1242792,"internal_node_id":"0.0-2.0-0.225"},{"rt":null,"stimulus":"<div style=\"width:400px; height: 400px; border-radius: 400px; background-color: #0000ff;\"></div>","response":null,"color":"#0000ff","task":"circle","trial_type":"html-keyboard-response","trial_index":228,"time_elapsed":1243514,"internal_node_id":"0.0-2.0-0.226"},{"rt":null,"stimulus":"<div style=\"width:400px; height: 400px; border-radius: 400px; background-color: #0000ff;\"></div>","response":null,"color":"#0000ff","task":"circle","trial_type":"html-keyboard-response","trial_index":229,"time_elapsed":1244241,"internal_node_id":"0.0-2.0-0.227"},{"rt":null,"stimulus":"<div style=\"width:400px; height: 400px; border-radius: 400px; background-color: #ffaa00;\"></div>","response":null,"color":"#ffaa00","task":"circle","trial_type":"html-keyboard-response","trial_index":230,"time_elapsed":1244956,"internal_node_id":"0.0-2.0-0.228"},{"rt":null,"stimulus":"<div style=\"width:400px; height: 400px; border-radius: 400px; background-color: #0000ff;\"></div>","response":null,"color":"#0000ff","task":"circle","trial_type":"html-keyboard-response","trial_index":231,"time_elapsed":1245681,"internal_node_id":"0.0-2.0-0.229"},{"rt":null,"stimulus":"<div style=\"width:400px; height: 400px; border-radius: 400px; background-color: #0000ff;\"></div>","response":null,"color":"#0000ff","task":"circle","trial_type":"html-keyboard-response","trial_index":232,"time_elapsed":1246407,"internal_node_id":"0.0-2.0-0.230"},{"rt":null,"stimulus":"<div style=\"width:400px; height: 400px; border-radius: 400px; background-color: #0000ff;\"></div>","response":null,"color":"#0000ff","task":"circle","trial_type":"html-keyboard-response","trial_index":233,"time_elapsed":1247133,"internal_node_id":"0.0-2.0-0.231"},{"rt":null,"stimulus":"<div style=\"width:400px; height: 400px; border-radius: 400px; background-color: #8000ff;\"></div>","response":null,"color":"#8000ff","task":"circle","trial_type":"html-keyboard-response","trial_index":234,"time_elapsed":1247858,"internal_node_id":"0.0-2.0-0.232"},{"rt":null,"stimulus":"<div style=\"width:400px; height: 400px; border-radius: 400px; background-color: #0000ff;\"></div>","response":null,"color":"#0000ff","task":"circle","trial_type":"html-keyboard-response","trial_index":235,"time_elapsed":1248581,"internal_node_id":"0.0-2.0-0.233"},{"rt":null,"stimulus":"<div style=\"width:400px; height: 400px; border-radius: 400px; background-color: #0000ff;\"></div>","response":null,"color":"#0000ff","task":"circle","trial_type":"html-keyboard-response","trial_index":236,"time_elapsed":1249305,"internal_node_id":"0.0-2.0-0.234"},{"rt":null,"stimulus":"<div style=\"width:400px; height: 400px; border-radius: 400px; background-color: #ffaa00;\"></div>","response":null,"color":"#ffaa00","task":"circle","trial_type":"html-keyboard-response","trial_index":237,"time_elapsed":1250031,"internal_node_id":"0.0-2.0-0.235"},{"rt":null,"stimulus":"<div style=\"width:400px; height: 400px; border-radius: 400px; background-color: #0000ff;\"></div>","response":null,"color":"#0000ff","task":"circle","trial_type":"html-keyboard-response","trial_index":238,"time_elapsed":1250749,"internal_node_id":"0.0-2.0-0.236"},{"rt":null,"stimulus":"<div style=\"width:400px; height: 400px; border-radius: 400px; background-color: #0000ff;\"></div>","response":null,"color":"#0000ff","task":"circle","trial_type":"html-keyboard-response","trial_index":239,"time_elapsed":1251476,"internal_node_id":"0.0-2.0-0.237"},{"rt":null,"stimulus":"<div style=\"width:400px; height: 400px; border-radius: 400px; background-color: #0000ff;\"></div>","response":null,"color":"#0000ff","task":"circle","trial_type":"html-keyboard-response","trial_index":240,"time_elapsed":1252202,"internal_node_id":"0.0-2.0-0.238"},{"rt":null,"stimulus":"<div style=\"width:400px; height: 400px; border-radius: 400px; background-color: #0000ff;\"></div>","response":null,"color":"#0000ff","task":"circle","trial_type":"html-keyboard-response","trial_index":241,"time_elapsed":1252928,"internal_node_id":"0.0-2.0-0.239"},{"rt":null,"stimulus":"<div style=\"width:400px; height: 400px; border-radius: 400px; background-color: #0000ff;\"></div>","response":null,"color":"#0000ff","task":"circle","trial_type":"html-keyboard-response","trial_index":242,"time_elapsed":1253651,"internal_node_id":"0.0-2.0-0.240"},{"rt":null,"stimulus":"<div style=\"width:400px; height: 400px; border-radius: 400px; background-color: #8000ff;\"></div>","response":null,"color":"#8000ff","task":"circle","trial_type":"html-keyboard-response","trial_index":243,"time_elapsed":1254377,"internal_node_id":"0.0-2.0-0.241"},{"rt":null,"stimulus":"<div style=\"width:400px; height: 400px; border-radius: 400px; background-color: #0000ff;\"></div>","response":null,"color":"#0000ff","task":"circle","trial_type":"html-keyboard-response","trial_index":244,"time_elapsed":1255100,"internal_node_id":"0.0-2.0-0.242"},{"rt":null,"stimulus":"<div style=\"width:400px; height: 400px; border-radius: 400px; background-color: #0000ff;\"></div>","response":null,"color":"#0000ff","task":"circle","trial_type":"html-keyboard-response","trial_index":245,"time_elapsed":1255826,"internal_node_id":"0.0-2.0-0.243"},{"rt":null,"stimulus":"<div style=\"width:400px; height: 400px; border-radius: 400px; background-color: #0000ff;\"></div>","response":null,"color":"#0000ff","task":"circle","trial_type":"html-keyboard-response","trial_index":246,"time_elapsed":1256553,"internal_node_id":"0.0-2.0-0.244"},{"rt":null,"stimulus":"<div style=\"width:400px; height: 400px; border-radius: 400px; background-color: #0000ff;\"></div>","response":null,"color":"#0000ff","task":"circle","trial_type":"html-keyboard-response","trial_index":247,"time_elapsed":1257276,"internal_node_id":"0.0-2.0-0.245"},{"rt":null,"stimulus":"<div style=\"width:400px; height: 400px; border-radius: 400px; background-color: #0000ff;\"></div>","response":null,"color":"#0000ff","task":"circle","trial_type":"html-keyboard-response","trial_index":248,"time_elapsed":1258005,"internal_node_id":"0.0-2.0-0.246"},{"rt":null,"stimulus":"<div style=\"width:400px; height: 400px; border-radius: 400px; background-color: #0000ff;\"></div>","response":null,"color":"#0000ff","task":"circle","trial_type":"html-keyboard-response","trial_index":249,"time_elapsed":1258729,"internal_node_id":"0.0-2.0-0.247"},{"rt":null,"stimulus":"<div style=\"width:400px; height: 400px; border-radius: 400px; background-color: #ffaa00;\"></div>","response":null,"color":"#ffaa00","task":"circle","trial_type":"html-keyboard-response","trial_index":250,"time_elapsed":1259449,"internal_node_id":"0.0-2.0-0.248"},{"rt":null,"stimulus":"<div style=\"width:400px; height: 400px; border-radius: 400px; background-color: #0000ff;\"></div>","response":null,"color":"#0000ff","task":"circle","trial_type":"html-keyboard-response","trial_index":251,"time_elapsed":1260174,"internal_node_id":"0.0-2.0-0.249"},{"rt":7763,"response":{"Q0":"50"},"task":"count","trial_type":"survey-text","trial_index":252,"time_elapsed":1268301,"internal_node_id":"0.0-3.0"},{"rt":9474,"stimulus":"<p>When you are ready for the next round, press the spacebar.</p>","response":" ","trial_type":"html-keyboard-response","trial_index":253,"time_elapsed":1278781,"internal_node_id":"0.0-4.0"},{"rt":null,"stimulus":"<div style=\"width:400px; height: 400px; border-radius: 400px; background-color: #0000ff;\"></div>","response":null,"color":"#0000ff","task":"circle","trial_type":"html-keyboard-response","trial_index":254,"time_elapsed":1279145,"internal_node_id":"0.0-5.0-0.0"},{"rt":null,"stimulus":"<div style=\"width:400px; height: 400px; border-radius: 400px; background-color: #0000ff;\"></div>","response":null,"color":"#0000ff","task":"circle","trial_type":"html-keyboard-response","trial_index":255,"time_elapsed":1279870,"internal_node_id":"0.0-5.0-0.1"},{"rt":null,"stimulus":"<div style=\"width:400px; height: 400px; border-radius: 400px; background-color: #0000ff;\"></div>","response":null,"color":"#0000ff","task":"circle","trial_type":"html-keyboard-response","trial_index":256,"time_elapsed":1280591,"internal_node_id":"0.0-5.0-0.2"},{"rt":null,"stimulus":"<div style=\"width:400px; height: 400px; border-radius: 400px; background-color: #8000ff;\"></div>","response":null,"color":"#8000ff","task":"circle","trial_type":"html-keyboard-response","trial_index":257,"time_elapsed":1281301,"internal_node_id":"0.0-5.0-0.3"},{"rt":null,"stimulus":"<div style=\"width:400px; height: 400px; border-radius: 400px; background-color: #0000ff;\"></div>","response":null,"color":"#0000ff","task":"circle","trial_type":"html-keyboard-response","trial_index":258,"time_elapsed":1282028,"internal_node_id":"0.0-5.0-0.4"},{"rt":null,"stimulus":"<div style=\"width:400px; height: 400px; border-radius: 400px; background-color: #0000ff;\"></div>","response":null,"color":"#0000ff","task":"circle","trial_type":"html-keyboard-response","trial_index":259,"time_elapsed":1282753,"internal_node_id":"0.0-5.0-0.5"},{"rt":null,"stimulus":"<div style=\"width:400px; height: 400px; border-radius: 400px; background-color: #0000ff;\"></div>","response":null,"color":"#0000ff","task":"circle","trial_type":"html-keyboard-response","trial_index":260,"time_elapsed":1283477,"internal_node_id":"0.0-5.0-0.6"},{"rt":null,"stimulus":"<div style=\"width:400px; height: 400px; border-radius: 400px; background-color: #0000ff;\"></div>","response":null,"color":"#0000ff","task":"circle","trial_type":"html-keyboard-response","trial_index":261,"time_elapsed":1284206,"internal_node_id":"0.0-5.0-0.7"},{"rt":null,"stimulus":"<div style=\"width:400px; height: 400px; border-radius: 400px; background-color: #ffaa00;\"></div>","response":null,"color":"#ffaa00","task":"circle","trial_type":"html-keyboard-response","trial_index":262,"time_elapsed":1284932,"internal_node_id":"0.0-5.0-0.8"},{"rt":null,"stimulus":"<div style=\"width:400px; height: 400px; border-radius: 400px; background-color: #0000ff;\"></div>","response":null,"color":"#0000ff","task":"circle","trial_type":"html-keyboard-response","trial_index":263,"time_elapsed":1285655,"internal_node_id":"0.0-5.0-0.9"},{"rt":null,"stimulus":"<div style=\"width:400px; height: 400px; border-radius: 400px; background-color: #0000ff;\"></div>","response":null,"color":"#0000ff","task":"circle","trial_type":"html-keyboard-response","trial_index":264,"time_elapsed":1286384,"internal_node_id":"0.0-5.0-0.10"},{"rt":null,"stimulus":"<div style=\"width:400px; height: 400px; border-radius: 400px; background-color: #0000ff;\"></div>","response":null,"color":"#0000ff","task":"circle","trial_type":"html-keyboard-response","trial_index":265,"time_elapsed":1287108,"internal_node_id":"0.0-5.0-0.11"},{"rt":null,"stimulus":"<div style=\"width:400px; height: 400px; border-radius: 400px; background-color: #0000ff;\"></div>","response":null,"color":"#0000ff","task":"circle","trial_type":"html-keyboard-response","trial_index":266,"time_elapsed":1287838,"internal_node_id":"0.0-5.0-0.12"},{"rt":null,"stimulus":"<div style=\"width:400px; height: 400px; border-radius: 400px; background-color: #0000ff;\"></div>","response":null,"color":"#0000ff","task":"circle","trial_type":"html-keyboard-response","trial_index":267,"time_elapsed":1288564,"internal_node_id":"0.0-5.0-0.13"},{"rt":null,"stimulus":"<div style=\"width:400px; height: 400px; border-radius: 400px; background-color: #ffaa00;\"></div>","response":null,"color":"#ffaa00","task":"circle","trial_type":"html-keyboard-response","trial_index":268,"time_elapsed":1289288,"internal_node_id":"0.0-5.0-0.14"},{"rt":null,"stimulus":"<div style=\"width:400px; height: 400px; border-radius: 400px; background-color: #0000ff;\"></div>","response":null,"color":"#0000ff","task":"circle","trial_type":"html-keyboard-response","trial_index":269,"time_elapsed":1290012,"internal_node_id":"0.0-5.0-0.15"},{"rt":null,"stimulus":"<div style=\"width:400px; height: 400px; border-radius: 400px; background-color: #0000ff;\"></div>","response":null,"color":"#0000ff","task":"circle","trial_type":"html-keyboard-response","trial_index":270,"time_elapsed":1290738,"internal_node_id":"0.0-5.0-0.16"},{"rt":null,"stimulus":"<div style=\"width:400px; height: 400px; border-radius: 400px; background-color: #0000ff;\"></div>","response":null,"color":"#0000ff","task":"circle","trial_type":"html-keyboard-response","trial_index":271,"time_elapsed":1291466,"internal_node_id":"0.0-5.0-0.17"},{"rt":null,"stimulus":"<div style=\"width:400px; height: 400px; border-radius: 400px; background-color: #0000ff;\"></div>","response":null,"color":"#0000ff","task":"circle","trial_type":"html-keyboard-response","trial_index":272,"time_elapsed":1292192,"internal_node_id":"0.0-5.0-0.18"},{"rt":null,"stimulus":"<div style=\"width:400px; height: 400px; border-radius: 400px; background-color: #8000ff;\"></div>","response":null,"color":"#8000ff","task":"circle","trial_type":"html-keyboard-response","trial_index":273,"time_elapsed":1292920,"internal_node_id":"0.0-5.0-0.19"},{"rt":null,"stimulus":"<div style=\"width:400px; height: 400px; border-radius: 400px; background-color: #0000ff;\"></div>","response":null,"color":"#0000ff","task":"circle","trial_type":"html-keyboard-response","trial_index":274,"time_elapsed":1293645,"internal_node_id":"0.0-5.0-0.20"},{"rt":null,"stimulus":"<div style=\"width:400px; height: 400px; border-radius: 400px; background-color: #ffaa00;\"></div>","response":null,"color":"#ffaa00","task":"circle","trial_type":"html-keyboard-response","trial_index":275,"time_elapsed":1294371,"internal_node_id":"0.0-5.0-0.21"},{"rt":null,"stimulus":"<div style=\"width:400px; height: 400px; border-radius: 400px; background-color: #0000ff;\"></div>","response":null,"color":"#0000ff","task":"circle","trial_type":"html-keyboard-response","trial_index":276,"time_elapsed":1295097,"internal_node_id":"0.0-5.0-0.22"},{"rt":null,"stimulus":"<div style=\"width:400px; height: 400px; border-radius: 400px; background-color: #0000ff;\"></div>","response":null,"color":"#0000ff","task":"circle","trial_type":"html-keyboard-response","trial_index":277,"time_elapsed":1295820,"internal_node_id":"0.0-5.0-0.23"},{"rt":null,"stimulus":"<div style=\"width:400px; height: 400px; border-radius: 400px; background-color: #0000ff;\"></div>","response":null,"color":"#0000ff","task":"circle","trial_type":"html-keyboard-response","trial_index":278,"time_elapsed":1296545,"internal_node_id":"0.0-5.0-0.24"},{"rt":null,"stimulus":"<div style=\"width:400px; height: 400px; border-radius: 400px; background-color: #0000ff;\"></div>","response":null,"color":"#0000ff","task":"circle","trial_type":"html-keyboard-response","trial_index":279,"time_elapsed":1297269,"internal_node_id":"0.0-5.0-0.25"},{"rt":null,"stimulus":"<div style=\"width:400px; height: 400px; border-radius: 400px; background-color: #8000ff;\"></div>","response":null,"color":"#8000ff","task":"circle","trial_type":"html-keyboard-response","trial_index":280,"time_elapsed":1297991,"internal_node_id":"0.0-5.0-0.26"},{"rt":null,"stimulus":"<div style=\"width:400px; height: 400px; border-radius: 400px; background-color: #0000ff;\"></div>","response":null,"color":"#0000ff","task":"circle","trial_type":"html-keyboard-response","trial_index":281,"time_elapsed":1298716,"internal_node_id":"0.0-5.0-0.27"},{"rt":null,"stimulus":"<div style=\"width:400px; height: 400px; border-radius: 400px; background-color: #0000ff;\"></div>","response":null,"color":"#0000ff","task":"circle","trial_type":"html-keyboard-response","trial_index":282,"time_elapsed":1299441,"internal_node_id":"0.0-5.0-0.28"},{"rt":null,"stimulus":"<div style=\"width:400px; height: 400px; border-radius: 400px; background-color: #0000ff;\"></div>","response":null,"color":"#0000ff","task":"circle","trial_type":"html-keyboard-response","trial_index":283,"time_elapsed":1300167,"internal_node_id":"0.0-5.0-0.29"},{"rt":null,"stimulus":"<div style=\"width:400px; height: 400px; border-radius: 400px; background-color: #0000ff;\"></div>","response":null,"color":"#0000ff","task":"circle","trial_type":"html-keyboard-response","trial_index":284,"time_elapsed":1300894,"internal_node_id":"0.0-5.0-0.30"},{"rt":null,"stimulus":"<div style=\"width:400px; height: 400px; border-radius: 400px; background-color: #0000ff;\"></div>","response":null,"color":"#0000ff","task":"circle","trial_type":"html-keyboard-response","trial_index":285,"time_elapsed":1301619,"internal_node_id":"0.0-5.0-0.31"},{"rt":null,"stimulus":"<div style=\"width:400px; height: 400px; border-radius: 400px; background-color: #0000ff;\"></div>","response":null,"color":"#0000ff","task":"circle","trial_type":"html-keyboard-response","trial_index":286,"time_elapsed":1302341,"internal_node_id":"0.0-5.0-0.32"},{"rt":null,"stimulus":"<div style=\"width:400px; height: 400px; border-radius: 400px; background-color: #0000ff;\"></div>","response":null,"color":"#0000ff","task":"circle","trial_type":"html-keyboard-response","trial_index":287,"time_elapsed":1303066,"internal_node_id":"0.0-5.0-0.33"},{"rt":null,"stimulus":"<div style=\"width:400px; height: 400px; border-radius: 400px; background-color: #ffaa00;\"></div>","response":null,"color":"#ffaa00","task":"circle","trial_type":"html-keyboard-response","trial_index":288,"time_elapsed":1303791,"internal_node_id":"0.0-5.0-0.34"},{"rt":null,"stimulus":"<div style=\"width:400px; height: 400px; border-radius: 400px; background-color: #0000ff;\"></div>","response":null,"color":"#0000ff","task":"circle","trial_type":"html-keyboard-response","trial_index":289,"time_elapsed":1304511,"internal_node_id":"0.0-5.0-0.35"},{"rt":null,"stimulus":"<div style=\"width:400px; height: 400px; border-radius: 400px; background-color: #0000ff;\"></div>","response":null,"color":"#0000ff","task":"circle","trial_type":"html-keyboard-response","trial_index":290,"time_elapsed":1305236,"internal_node_id":"0.0-5.0-0.36"},{"rt":null,"stimulus":"<div style=\"width:400px; height: 400px; border-radius: 400px; background-color: #0000ff;\"></div>","response":null,"color":"#0000ff","task":"circle","trial_type":"html-keyboard-response","trial_index":291,"time_elapsed":1305961,"internal_node_id":"0.0-5.0-0.37"},{"rt":null,"stimulus":"<div style=\"width:400px; height: 400px; border-radius: 400px; background-color: #8000ff;\"></div>","response":null,"color":"#8000ff","task":"circle","trial_type":"html-keyboard-response","trial_index":292,"time_elapsed":1306675,"internal_node_id":"0.0-5.0-0.38"},{"rt":null,"stimulus":"<div style=\"width:400px; height: 400px; border-radius: 400px; background-color: #0000ff;\"></div>","response":null,"color":"#0000ff","task":"circle","trial_type":"html-keyboard-response","trial_index":293,"time_elapsed":1307400,"internal_node_id":"0.0-5.0-0.39"},{"rt":null,"stimulus":"<div style=\"width:400px; height: 400px; border-radius: 400px; background-color: #0000ff;\"></div>","response":null,"color":"#0000ff","task":"circle","trial_type":"html-keyboard-response","trial_index":294,"time_elapsed":1308124,"internal_node_id":"0.0-5.0-0.40"},{"rt":null,"stimulus":"<div style=\"width:400px; height: 400px; border-radius: 400px; background-color: #0000ff;\"></div>","response":null,"color":"#0000ff","task":"circle","trial_type":"html-keyboard-response","trial_index":295,"time_elapsed":1308845,"internal_node_id":"0.0-5.0-0.41"},{"rt":null,"stimulus":"<div style=\"width:400px; height: 400px; border-radius: 400px; background-color: #0000ff;\"></div>","response":null,"color":"#0000ff","task":"circle","trial_type":"html-keyboard-response","trial_index":296,"time_elapsed":1309569,"internal_node_id":"0.0-5.0-0.42"},{"rt":null,"stimulus":"<div style=\"width:400px; height: 400px; border-radius: 400px; background-color: #ffaa00;\"></div>","response":null,"color":"#ffaa00","task":"circle","trial_type":"html-keyboard-response","trial_index":297,"time_elapsed":1310296,"internal_node_id":"0.0-5.0-0.43"},{"rt":null,"stimulus":"<div style=\"width:400px; height: 400px; border-radius: 400px; background-color: #8000ff;\"></div>","response":null,"color":"#8000ff","task":"circle","trial_type":"html-keyboard-response","trial_index":298,"time_elapsed":1311024,"internal_node_id":"0.0-5.0-0.44"},{"rt":null,"stimulus":"<div style=\"width:400px; height: 400px; border-radius: 400px; background-color: #0000ff;\"></div>","response":null,"color":"#0000ff","task":"circle","trial_type":"html-keyboard-response","trial_index":299,"time_elapsed":1311746,"internal_node_id":"0.0-5.0-0.45"},{"rt":null,"stimulus":"<div style=\"width:400px; height: 400px; border-radius: 400px; background-color: #0000ff;\"></div>","response":null,"color":"#0000ff","task":"circle","trial_type":"html-keyboard-response","trial_index":300,"time_elapsed":1312456,"internal_node_id":"0.0-5.0-0.46"},{"rt":null,"stimulus":"<div style=\"width:400px; height: 400px; border-radius: 400px; background-color: #0000ff;\"></div>","response":null,"color":"#0000ff","task":"circle","trial_type":"html-keyboard-response","trial_index":301,"time_elapsed":1313183,"internal_node_id":"0.0-5.0-0.47"},{"rt":null,"stimulus":"<div style=\"width:400px; height: 400px; border-radius: 400px; background-color: #0000ff;\"></div>","response":null,"color":"#0000ff","task":"circle","trial_type":"html-keyboard-response","trial_index":302,"time_elapsed":1313909,"internal_node_id":"0.0-5.0-0.48"},{"rt":null,"stimulus":"<div style=\"width:400px; height: 400px; border-radius: 400px; background-color: #0000ff;\"></div>","response":null,"color":"#0000ff","task":"circle","trial_type":"html-keyboard-response","trial_index":303,"time_elapsed":1314638,"internal_node_id":"0.0-5.0-0.49"},{"rt":null,"stimulus":"<div style=\"width:400px; height: 400px; border-radius: 400px; background-color: #0000ff;\"></div>","response":null,"color":"#0000ff","task":"circle","trial_type":"html-keyboard-response","trial_index":304,"time_elapsed":1315361,"internal_node_id":"0.0-5.0-0.50"},{"rt":null,"stimulus":"<div style=\"width:400px; height: 400px; border-radius: 400px; background-color: #0000ff;\"></div>","response":null,"color":"#0000ff","task":"circle","trial_type":"html-keyboard-response","trial_index":305,"time_elapsed":1316084,"internal_node_id":"0.0-5.0-0.51"},{"rt":null,"stimulus":"<div style=\"width:400px; height: 400px; border-radius: 400px; background-color: #0000ff;\"></div>","response":null,"color":"#0000ff","task":"circle","trial_type":"html-keyboard-response","trial_index":306,"time_elapsed":1316803,"internal_node_id":"0.0-5.0-0.52"},{"rt":null,"stimulus":"<div style=\"width:400px; height: 400px; border-radius: 400px; background-color: #ffaa00;\"></div>","response":null,"color":"#ffaa00","task":"circle","trial_type":"html-keyboard-response","trial_index":307,"time_elapsed":1317524,"internal_node_id":"0.0-5.0-0.53"},{"rt":null,"stimulus":"<div style=\"width:400px; height: 400px; border-radius: 400px; background-color: #0000ff;\"></div>","response":null,"color":"#0000ff","task":"circle","trial_type":"html-keyboard-response","trial_index":308,"time_elapsed":1318253,"internal_node_id":"0.0-5.0-0.54"},{"rt":null,"stimulus":"<div style=\"width:400px; height: 400px; border-radius: 400px; background-color: #0000ff;\"></div>","response":null,"color":"#0000ff","task":"circle","trial_type":"html-keyboard-response","trial_index":309,"time_elapsed":1318981,"internal_node_id":"0.0-5.0-0.55"},{"rt":null,"stimulus":"<div style=\"width:400px; height: 400px; border-radius: 400px; background-color: #8000ff;\"></div>","response":null,"color":"#8000ff","task":"circle","trial_type":"html-keyboard-response","trial_index":310,"time_elapsed":1319707,"internal_node_id":"0.0-5.0-0.56"},{"rt":null,"stimulus":"<div style=\"width:400px; height: 400px; border-radius: 400px; background-color: #0000ff;\"></div>","response":null,"color":"#0000ff","task":"circle","trial_type":"html-keyboard-response","trial_index":311,"time_elapsed":1320433,"internal_node_id":"0.0-5.0-0.57"},{"rt":null,"stimulus":"<div style=\"width:400px; height: 400px; border-radius: 400px; background-color: #0000ff;\"></div>","response":null,"color":"#0000ff","task":"circle","trial_type":"html-keyboard-response","trial_index":312,"time_elapsed":1321156,"internal_node_id":"0.0-5.0-0.58"},{"rt":null,"stimulus":"<div style=\"width:400px; height: 400px; border-radius: 400px; background-color: #0000ff;\"></div>","response":null,"color":"#0000ff","task":"circle","trial_type":"html-keyboard-response","trial_index":313,"time_elapsed":1321880,"internal_node_id":"0.0-5.0-0.59"},{"rt":null,"stimulus":"<div style=\"width:400px; height: 400px; border-radius: 400px; background-color: #0000ff;\"></div>","response":null,"color":"#0000ff","task":"circle","trial_type":"html-keyboard-response","trial_index":314,"time_elapsed":1322603,"internal_node_id":"0.0-5.0-0.60"},{"rt":null,"stimulus":"<div style=\"width:400px; height: 400px; border-radius: 400px; background-color: #0000ff;\"></div>","response":null,"color":"#0000ff","task":"circle","trial_type":"html-keyboard-response","trial_index":315,"time_elapsed":1323331,"internal_node_id":"0.0-5.0-0.61"},{"rt":null,"stimulus":"<div style=\"width:400px; height: 400px; border-radius: 400px; background-color: #ffaa00;\"></div>","response":null,"color":"#ffaa00","task":"circle","trial_type":"html-keyboard-response","trial_index":316,"time_elapsed":1324057,"internal_node_id":"0.0-5.0-0.62"},{"rt":null,"stimulus":"<div style=\"width:400px; height: 400px; border-radius: 400px; background-color: #0000ff;\"></div>","response":null,"color":"#0000ff","task":"circle","trial_type":"html-keyboard-response","trial_index":317,"time_elapsed":1324784,"internal_node_id":"0.0-5.0-0.63"},{"rt":null,"stimulus":"<div style=\"width:400px; height: 400px; border-radius: 400px; background-color: #0000ff;\"></div>","response":null,"color":"#0000ff","task":"circle","trial_type":"html-keyboard-response","trial_index":318,"time_elapsed":1325512,"internal_node_id":"0.0-5.0-0.64"},{"rt":null,"stimulus":"<div style=\"width:400px; height: 400px; border-radius: 400px; background-color: #0000ff;\"></div>","response":null,"color":"#0000ff","task":"circle","trial_type":"html-keyboard-response","trial_index":319,"time_elapsed":1326236,"internal_node_id":"0.0-5.0-0.65"},{"rt":null,"stimulus":"<div style=\"width:400px; height: 400px; border-radius: 400px; background-color: #0000ff;\"></div>","response":null,"color":"#0000ff","task":"circle","trial_type":"html-keyboard-response","trial_index":320,"time_elapsed":1326963,"internal_node_id":"0.0-5.0-0.66"},{"rt":null,"stimulus":"<div style=\"width:400px; height: 400px; border-radius: 400px; background-color: #0000ff;\"></div>","response":null,"color":"#0000ff","task":"circle","trial_type":"html-keyboard-response","trial_index":321,"time_elapsed":1327685,"internal_node_id":"0.0-5.0-0.67"},{"rt":null,"stimulus":"<div style=\"width:400px; height: 400px; border-radius: 400px; background-color: #8000ff;\"></div>","response":null,"color":"#8000ff","task":"circle","trial_type":"html-keyboard-response","trial_index":322,"time_elapsed":1328415,"internal_node_id":"0.0-5.0-0.68"},{"rt":null,"stimulus":"<div style=\"width:400px; height: 400px; border-radius: 400px; background-color: #0000ff;\"></div>","response":null,"color":"#0000ff","task":"circle","trial_type":"html-keyboard-response","trial_index":323,"time_elapsed":1329143,"internal_node_id":"0.0-5.0-0.69"},{"rt":null,"stimulus":"<div style=\"width:400px; height: 400px; border-radius: 400px; background-color: #0000ff;\"></div>","response":null,"color":"#0000ff","task":"circle","trial_type":"html-keyboard-response","trial_index":324,"time_elapsed":1329868,"internal_node_id":"0.0-5.0-0.70"},{"rt":null,"stimulus":"<div style=\"width:400px; height: 400px; border-radius: 400px; background-color: #0000ff;\"></div>","response":null,"color":"#0000ff","task":"circle","trial_type":"html-keyboard-response","trial_index":325,"time_elapsed":1330592,"internal_node_id":"0.0-5.0-0.71"},{"rt":null,"stimulus":"<div style=\"width:400px; height: 400px; border-radius: 400px; background-color: #0000ff;\"></div>","response":null,"color":"#0000ff","task":"circle","trial_type":"html-keyboard-response","trial_index":326,"time_elapsed":1331315,"internal_node_id":"0.0-5.0-0.72"},{"rt":null,"stimulus":"<div style=\"width:400px; height: 400px; border-radius: 400px; background-color: #8000ff;\"></div>","response":null,"color":"#8000ff","task":"circle","trial_type":"html-keyboard-response","trial_index":327,"time_elapsed":1332039,"internal_node_id":"0.0-5.0-0.73"},{"rt":null,"stimulus":"<div style=\"width:400px; height: 400px; border-radius: 400px; background-color: #0000ff;\"></div>","response":null,"color":"#0000ff","task":"circle","trial_type":"html-keyboard-response","trial_index":328,"time_elapsed":1332765,"internal_node_id":"0.0-5.0-0.74"},{"rt":null,"stimulus":"<div style=\"width:400px; height: 400px; border-radius: 400px; background-color: #0000ff;\"></div>","response":null,"color":"#0000ff","task":"circle","trial_type":"html-keyboard-response","trial_index":329,"time_elapsed":1333492,"internal_node_id":"0.0-5.0-0.75"},{"rt":null,"stimulus":"<div style=\"width:400px; height: 400px; border-radius: 400px; background-color: #0000ff;\"></div>","response":null,"color":"#0000ff","task":"circle","trial_type":"html-keyboard-response","trial_index":330,"time_elapsed":1334217,"internal_node_id":"0.0-5.0-0.76"},{"rt":null,"stimulus":"<div style=\"width:400px; height: 400px; border-radius: 400px; background-color: #0000ff;\"></div>","response":null,"color":"#0000ff","task":"circle","trial_type":"html-keyboard-response","trial_index":331,"time_elapsed":1334943,"internal_node_id":"0.0-5.0-0.77"},{"rt":null,"stimulus":"<div style=\"width:400px; height: 400px; border-radius: 400px; background-color: #0000ff;\"></div>","response":null,"color":"#0000ff","task":"circle","trial_type":"html-keyboard-response","trial_index":332,"time_elapsed":1335667,"internal_node_id":"0.0-5.0-0.78"},{"rt":null,"stimulus":"<div style=\"width:400px; height: 400px; border-radius: 400px; background-color: #ffaa00;\"></div>","response":null,"color":"#ffaa00","task":"circle","trial_type":"html-keyboard-response","trial_index":333,"time_elapsed":1336381,"internal_node_id":"0.0-5.0-0.79"},{"rt":null,"stimulus":"<div style=\"width:400px; height: 400px; border-radius: 400px; background-color: #0000ff;\"></div>","response":null,"color":"#0000ff","task":"circle","trial_type":"html-keyboard-response","trial_index":334,"time_elapsed":1337110,"internal_node_id":"0.0-5.0-0.80"},{"rt":null,"stimulus":"<div style=\"width:400px; height: 400px; border-radius: 400px; background-color: #8000ff;\"></div>","response":null,"color":"#8000ff","task":"circle","trial_type":"html-keyboard-response","trial_index":335,"time_elapsed":1337833,"internal_node_id":"0.0-5.0-0.81"},{"rt":null,"stimulus":"<div style=\"width:400px; height: 400px; border-radius: 400px; background-color: #0000ff;\"></div>","response":null,"color":"#0000ff","task":"circle","trial_type":"html-keyboard-response","trial_index":336,"time_elapsed":1338555,"internal_node_id":"0.0-5.0-0.82"},{"rt":null,"stimulus":"<div style=\"width:400px; height: 400px; border-radius: 400px; background-color: #0000ff;\"></div>","response":null,"color":"#0000ff","task":"circle","trial_type":"html-keyboard-response","trial_index":337,"time_elapsed":1339286,"internal_node_id":"0.0-5.0-0.83"},{"rt":null,"stimulus":"<div style=\"width:400px; height: 400px; border-radius: 400px; background-color: #0000ff;\"></div>","response":null,"color":"#0000ff","task":"circle","trial_type":"html-keyboard-response","trial_index":338,"time_elapsed":1340013,"internal_node_id":"0.0-5.0-0.84"},{"rt":null,"stimulus":"<div style=\"width:400px; height: 400px; border-radius: 400px; background-color: #0000ff;\"></div>","response":null,"color":"#0000ff","task":"circle","trial_type":"html-keyboard-response","trial_index":339,"time_elapsed":1340739,"internal_node_id":"0.0-5.0-0.85"},{"rt":null,"stimulus":"<div style=\"width:400px; height: 400px; border-radius: 400px; background-color: #0000ff;\"></div>","response":null,"color":"#0000ff","task":"circle","trial_type":"html-keyboard-response","trial_index":340,"time_elapsed":1341465,"internal_node_id":"0.0-5.0-0.86"},{"rt":null,"stimulus":"<div style=\"width:400px; height: 400px; border-radius: 400px; background-color: #ffaa00;\"></div>","response":null,"color":"#ffaa00","task":"circle","trial_type":"html-keyboard-response","trial_index":341,"time_elapsed":1342191,"internal_node_id":"0.0-5.0-0.87"},{"rt":null,"stimulus":"<div style=\"width:400px; height: 400px; border-radius: 400px; background-color: #0000ff;\"></div>","response":null,"color":"#0000ff","task":"circle","trial_type":"html-keyboard-response","trial_index":342,"time_elapsed":1342916,"internal_node_id":"0.0-5.0-0.88"},{"rt":null,"stimulus":"<div style=\"width:400px; height: 400px; border-radius: 400px; background-color: #0000ff;\"></div>","response":null,"color":"#0000ff","task":"circle","trial_type":"html-keyboard-response","trial_index":343,"time_elapsed":1343639,"internal_node_id":"0.0-5.0-0.89"},{"rt":null,"stimulus":"<div style=\"width:400px; height: 400px; border-radius: 400px; background-color: #0000ff;\"></div>","response":null,"color":"#0000ff","task":"circle","trial_type":"html-keyboard-response","trial_index":344,"time_elapsed":1344351,"internal_node_id":"0.0-5.0-0.90"},{"rt":null,"stimulus":"<div style=\"width:400px; height: 400px; border-radius: 400px; background-color: #0000ff;\"></div>","response":null,"color":"#0000ff","task":"circle","trial_type":"html-keyboard-response","trial_index":345,"time_elapsed":1345073,"internal_node_id":"0.0-5.0-0.91"},{"rt":null,"stimulus":"<div style=\"width:400px; height: 400px; border-radius: 400px; background-color: #ffaa00;\"></div>","response":null,"color":"#ffaa00","task":"circle","trial_type":"html-keyboard-response","trial_index":346,"time_elapsed":1345798,"internal_node_id":"0.0-5.0-0.92"},{"rt":null,"stimulus":"<div style=\"width:400px; height: 400px; border-radius: 400px; background-color: #0000ff;\"></div>","response":null,"color":"#0000ff","task":"circle","trial_type":"html-keyboard-response","trial_index":347,"time_elapsed":1