[{"rt":21049,"response":{"Q0":"02"},"task":"subject_id","trial_type":"survey-text","trial_index":0,"time_elapsed":21090,"internal_node_id":"0.0-0.0"},{"rt":27845,"stimulus":"<div style=\"width:600px;\">\n        <p>A series of colored circles will appear. Most of the circles will be blue, but some will be orange and some will be purple.</p>\n        <p>Your task is to count the total number of orange and purple circles.</p>\n        <p>You do not need to keep track of the number of orange and purple separately. For example, if you have seen 3 purple circles and 1 orange circle you only need to report the number 4.</p>\n        <p>You'll complete 3 rounds, and each round will take about 3 minutes.</p>\n        <p>When you are ready for the first round, press the spacebar.</p>\n        </div>","response":" ","trial_type":"html-keyboard-response","trial_index":1,"time_elapsed":48937,"internal_node_id":"0.0-1.0"},{"rt":null,"stimulus":"<div style=\"width:400px; height: 400px; border-radius: 400px; background-color: #0000ff;\"></div>","response":null,"color":"#0000ff","task":"circle","trial_type":"html-keyboard-response","trial_index":2,"time_elapsed":50310,"internal_node_id":"0.0-2.0-0.0"},{"rt":null,"stimulus":"<div style=\"width:400px; height: 400px; border-radius: 400px; background-color: #0000ff;\"></div>","response":null,"color":"#0000ff","task":"circle","trial_type":"html-keyboard-response","trial_index":3,"time_elapsed":51019,"internal_node_id":"0.0-2.0-0.1"},{"rt":null,"stimulus":"<div style=\"width:400px; height: 400px; border-radius: 400px; background-color: #0000ff;\"></div>","response":null,"color":"#0000ff","task":"circle","trial_type":"html-keyboard-response","trial_index":4,"time_elapsed":51725,"internal_node_id":"0.0-2.0-0.2"},{"rt":null,"stimulus":"<div style=\"width:400px; height: 400px; border-radius: 400px; background-color: #8000ff;\"></div>","response":null,"color":"#8000ff","task":"circle","trial_type":"html-keyboard-response","trial_index":5,"time_elapsed":52435,"internal_node_id":"0.0-2.0-0.3"},{"rt":null,"stimulus":"<div style=\"width:400px; height: 400px; border-radius: 400px; background-color: #0000ff;\"></div>","response":null,"color":"#0000ff","task":"circle","trial_type":"html-keyboard-response","trial_index":6,"time_elapsed":53147,"internal_node_id":"0.0-2.0-0.4"},{"rt":null,"stimulus":"<div style=\"width:400px; height: 400px; border-radius: 400px; background-color: #ffaa00;\"></div>","response":null,"color":"#ffaa00","task":"circle","trial_type":"html-keyboard-response","trial_index":7,"time_elapsed":53856,"internal_node_id":"0.0-2.0-0.5"},{"rt":null,"stimulus":"<div style=\"width:400px; height: 400px; border-radius: 400px; background-color: #0000ff;\"></div>","response":null,"color":"#0000ff","task":"circle","trial_type":"html-keyboard-response","trial_index":8,"time_elapsed":54576,"internal_node_id":"0.0-2.0-0.6"},{"rt":null,"stimulus":"<div style=\"width:400px; height: 400px; border-radius: 400px; background-color: #0000ff;\"></div>","response":null,"color":"#0000ff","task":"circle","trial_type":"html-keyboard-response","trial_index":9,"time_elapsed":55291,"internal_node_id":"0.0-2.0-0.7"},{"rt":null,"stimulus":"<div style=\"width:400px; height: 400px; border-radius: 400px; background-color: #0000ff;\"></div>","response":null,"color":"#0000ff","task":"circle","trial_type":"html-keyboard-response","trial_index":10,"time_elapsed":56003,"internal_node_id":"0.0-2.0-0.8"},{"rt":null,"stimulus":"<div style=\"width:400px; height: 400px; border-radius: 400px; background-color: #0000ff;\"></div>","response":null,"color":"#0000ff","task":"circle","trial_type":"html-keyboard-response","trial_index":11,"time_elapsed":56721,"internal_node_id":"0.0-2.0-0.9"},{"rt":null,"stimulus":"<div style=\"width:400px; height: 400px; border-radius: 400px; background-color: #0000ff;\"></div>","response":null,"color":"#0000ff","task":"circle","trial_type":"html-keyboard-response","trial_index":12,"time_elapsed":57441,"internal_node_id":"0.0-2.0-0.10"},{"rt":null,"stimulus":"<div style=\"width:400px; height: 400px; border-radius: 400px; background-color: #0000ff;\"></div>","response":null,"color":"#0000ff","task":"circle","trial_type":"html-keyboard-response","trial_index":13,"time_elapsed":58158,"internal_node_id":"0.0-2.0-0.11"},{"rt":null,"stimulus":"<div style=\"width:400px; height: 400px; border-radius: 400px; background-color: #0000ff;\"></div>","response":null,"color":"#0000ff","task":"circle","trial_type":"html-keyboard-response","trial_index":14,"time_elapsed":58876,"internal_node_id":"0.0-2.0-0.12"},{"rt":null,"stimulus":"<div style=\"width:400px; height: 400px; border-radius: 400px; background-color: #0000ff;\"></div>","response":null,"color":"#0000ff","task":"circle","trial_type":"html-keyboard-response","trial_index":15,"time_elapsed":59586,"internal_node_id":"0.0-2.0-0.13"},{"rt":null,"stimulus":"<div style=\"width:400px; height: 400px; border-radius: 400px; background-color: #0000ff;\"></div>","response":null,"color":"#0000ff","task":"circle","trial_type":"html-keyboard-response","trial_index":16,"time_elapsed":60307,"internal_node_id":"0.0-2.0-0.14"},{"rt":null,"stimulus":"<div style=\"width:400px; height: 400px; border-radius: 400px; background-color: #0000ff;\"></div>","response":null,"color":"#0000ff","task":"circle","trial_type":"html-keyboard-response","trial_index":17,"time_elapsed":61020,"internal_node_id":"0.0-2.0-0.15"},{"rt":null,"stimulus":"<div style=\"width:400px; height: 400px; border-radius: 400px; background-color: #0000ff;\"></div>","response":null,"color":"#0000ff","task":"circle","trial_type":"html-keyboard-response","trial_index":18,"time_elapsed":61729,"internal_node_id":"0.0-2.0-0.16"},{"rt":null,"stimulus":"<div style=\"width:400px; height: 400px; border-radius: 400px; background-color: #8000ff;\"></div>","response":null,"color":"#8000ff","task":"circle","trial_type":"html-keyboard-response","trial_index":19,"time_elapsed":62445,"internal_node_id":"0.0-2.0-0.17"},{"rt":null,"stimulus":"<div style=\"width:400px; height: 400px; border-radius: 400px; background-color: #0000ff;\"></div>","response":null,"color":"#0000ff","task":"circle","trial_type":"html-keyboard-response","trial_index":20,"time_elapsed":63171,"internal_node_id":"0.0-2.0-0.18"},{"rt":null,"stimulus":"<div style=\"width:400px; height: 400px; border-radius: 400px; background-color: #ffaa00;\"></div>","response":null,"color":"#ffaa00","task":"circle","trial_type":"html-keyboard-response","trial_index":21,"time_elapsed":63892,"internal_node_id":"0.0-2.0-0.19"},{"rt":null,"stimulus":"<div style=\"width:400px; height: 400px; border-radius: 400px; background-color: #0000ff;\"></div>","response":null,"color":"#0000ff","task":"circle","trial_type":"html-keyboard-response","trial_index":22,"time_elapsed":64605,"internal_node_id":"0.0-2.0-0.20"},{"rt":null,"stimulus":"<div style=\"width:400px; height: 400px; border-radius: 400px; background-color: #0000ff;\"></div>","response":null,"color":"#0000ff","task":"circle","trial_type":"html-keyboard-response","trial_index":23,"time_elapsed":65321,"internal_node_id":"0.0-2.0-0.21"},{"rt":null,"stimulus":"<div style=\"width:400px; height: 400px; border-radius: 400px; background-color: #8000ff;\"></div>","response":null,"color":"#8000ff","task":"circle","trial_type":"html-keyboard-response","trial_index":24,"time_elapsed":66038,"internal_node_id":"0.0-2.0-0.22"},{"rt":null,"stimulus":"<div style=\"width:400px; height: 400px; border-radius: 400px; background-color: #0000ff;\"></div>","response":null,"color":"#0000ff","task":"circle","trial_type":"html-keyboard-response","trial_index":25,"time_elapsed":66754,"internal_node_id":"0.0-2.0-0.23"},{"rt":null,"stimulus":"<div style=\"width:400px; height: 400px; border-radius: 400px; background-color: #0000ff;\"></div>","response":null,"color":"#0000ff","task":"circle","trial_type":"html-keyboard-response","trial_index":26,"time_elapsed":67464,"internal_node_id":"0.0-2.0-0.24"},{"rt":null,"stimulus":"<div style=\"width:400px; height: 400px; border-radius: 400px; background-color: #ffaa00;\"></div>","response":null,"color":"#ffaa00","task":"circle","trial_type":"html-keyboard-response","trial_index":27,"time_elapsed":68171,"internal_node_id":"0.0-2.0-0.25"},{"rt":null,"stimulus":"<div style=\"width:400px; height: 400px; border-radius: 400px; background-color: #0000ff;\"></div>","response":null,"color":"#0000ff","task":"circle","trial_type":"html-keyboard-response","trial_index":28,"time_elapsed":68885,"internal_node_id":"0.0-2.0-0.26"},{"rt":null,"stimulus":"<div style=\"width:400px; height: 400px; border-radius: 400px; background-color: #0000ff;\"></div>","response":null,"color":"#0000ff","task":"circle","trial_type":"html-keyboard-response","trial_index":29,"time_elapsed":69594,"internal_node_id":"0.0-2.0-0.27"},{"rt":null,"stimulus":"<div style=\"width:400px; height: 400px; border-radius: 400px; background-color: #0000ff;\"></div>","response":null,"color":"#0000ff","task":"circle","trial_type":"html-keyboard-response","trial_index":30,"time_elapsed":70306,"internal_node_id":"0.0-2.0-0.28"},{"rt":null,"stimulus":"<div style=\"width:400px; height: 400px; border-radius: 400px; background-color: #0000ff;\"></div>","response":null,"color":"#0000ff","task":"circle","trial_type":"html-keyboard-response","trial_index":31,"time_elapsed":71021,"internal_node_id":"0.0-2.0-0.29"},{"rt":null,"stimulus":"<div style=\"width:400px; height: 400px; border-radius: 400px; background-color: #0000ff;\"></div>","response":null,"color":"#0000ff","task":"circle","trial_type":"html-keyboard-response","trial_index":32,"time_elapsed":71735,"internal_node_id":"0.0-2.0-0.30"},{"rt":null,"stimulus":"<div style=\"width:400px; height: 400px; border-radius: 400px; background-color: #0000ff;\"></div>","response":null,"color":"#0000ff","task":"circle","trial_type":"html-keyboard-response","trial_index":33,"time_elapsed":72441,"internal_node_id":"0.0-2.0-0.31"},{"rt":null,"stimulus":"<div style=\"width:400px; height: 400px; border-radius: 400px; background-color: #ffaa00;\"></div>","response":null,"color":"#ffaa00","task":"circle","trial_type":"html-keyboard-response","trial_index":34,"time_elapsed":73157,"internal_node_id":"0.0-2.0-0.32"},{"rt":null,"stimulus":"<div style=\"width:400px; height: 400px; border-radius: 400px; background-color: #0000ff;\"></div>","response":null,"color":"#0000ff","task":"circle","trial_type":"html-keyboard-response","trial_index":35,"time_elapsed":73879,"internal_node_id":"0.0-2.0-0.33"},{"rt":null,"stimulus":"<div style=\"width:400px; height: 400px; border-radius: 400px; background-color: #8000ff;\"></div>","response":null,"color":"#8000ff","task":"circle","trial_type":"html-keyboard-response","trial_index":36,"time_elapsed":74588,"internal_node_id":"0.0-2.0-0.34"},{"rt":null,"stimulus":"<div style=\"width:400px; height: 400px; border-radius: 400px; background-color: #0000ff;\"></div>","response":null,"color":"#0000ff","task":"circle","trial_type":"html-keyboard-response","trial_index":37,"time_elapsed":75317,"internal_node_id":"0.0-2.0-0.35"},{"rt":null,"stimulus":"<div style=\"width:400px; height: 400px; border-radius: 400px; background-color: #0000ff;\"></div>","response":null,"color":"#0000ff","task":"circle","trial_type":"html-keyboard-response","trial_index":38,"time_elapsed":76027,"internal_node_id":"0.0-2.0-0.36"},{"rt":null,"stimulus":"<div style=\"width:400px; height: 400px; border-radius: 400px; background-color: #0000ff;\"></div>","response":null,"color":"#0000ff","task":"circle","trial_type":"html-keyboard-response","trial_index":39,"time_elapsed":76736,"internal_node_id":"0.0-2.0-0.37"},{"rt":null,"stimulus":"<div style=\"width:400px; height: 400px; border-radius: 400px; background-color: #0000ff;\"></div>","response":null,"color":"#0000ff","task":"circle","trial_type":"html-keyboard-response","trial_index":40,"time_elapsed":77452,"internal_node_id":"0.0-2.0-0.38"},{"rt":null,"stimulus":"<div style=\"width:400px; height: 400px; border-radius: 400px; background-color: #0000ff;\"></div>","response":null,"color":"#0000ff","task":"circle","trial_type":"html-keyboard-response","trial_index":41,"time_elapsed":78173,"internal_node_id":"0.0-2.0-0.39"},{"rt":null,"stimulus":"<div style=\"width:400px; height: 400px; border-radius: 400px; background-color: #0000ff;\"></div>","response":null,"color":"#0000ff","task":"circle","trial_type":"html-keyboard-response","trial_index":42,"time_elapsed":78900,"internal_node_id":"0.0-2.0-0.40"},{"rt":null,"stimulus":"<div style=\"width:400px; height: 400px; border-radius: 400px; background-color: #0000ff;\"></div>","response":null,"color":"#0000ff","task":"circle","trial_type":"html-keyboard-response","trial_index":43,"time_elapsed":79624,"internal_node_id":"0.0-2.0-0.41"},{"rt":null,"stimulus":"<div style=\"width:400px; height: 400px; border-radius: 400px; background-color: #0000ff;\"></div>","response":null,"color":"#0000ff","task":"circle","trial_type":"html-keyboard-response","trial_index":44,"time_elapsed":80333,"internal_node_id":"0.0-2.0-0.42"},{"rt":null,"stimulus":"<div style=\"width:400px; height: 400px; border-radius: 400px; background-color: #0000ff;\"></div>","response":null,"color":"#0000ff","task":"circle","trial_type":"html-keyboard-response","trial_index":45,"time_elapsed":81039,"internal_node_id":"0.0-2.0-0.43"},{"rt":null,"stimulus":"<div style=\"width:400px; height: 400px; border-radius: 400px; background-color: #8000ff;\"></div>","response":null,"color":"#8000ff","task":"circle","trial_type":"html-keyboard-response","trial_index":46,"time_elapsed":81750,"internal_node_id":"0.0-2.0-0.44"},{"rt":null,"stimulus":"<div style=\"width:400px; height: 400px; border-radius: 400px; background-color: #0000ff;\"></div>","response":null,"color":"#0000ff","task":"circle","trial_type":"html-keyboard-response","trial_index":47,"time_elapsed":82455,"internal_node_id":"0.0-2.0-0.45"},{"rt":null,"stimulus":"<div style=\"width:400px; height: 400px; border-radius: 400px; background-color: #0000ff;\"></div>","response":null,"color":"#0000ff","task":"circle","trial_type":"html-keyboard-response","trial_index":48,"time_elapsed":83169,"internal_node_id":"0.0-2.0-0.46"},{"rt":null,"stimulus":"<div style=\"width:400px; height: 400px; border-radius: 400px; background-color: #0000ff;\"></div>","response":null,"color":"#0000ff","task":"circle","trial_type":"html-keyboard-response","trial_index":49,"time_elapsed":83888,"internal_node_id":"0.0-2.0-0.47"},{"rt":null,"stimulus":"<div style=\"width:400px; height: 400px; border-radius: 400px; background-color: #0000ff;\"></div>","response":null,"color":"#0000ff","task":"circle","trial_type":"html-keyboard-response","trial_index":50,"time_elapsed":84600,"internal_node_id":"0.0-2.0-0.48"},{"rt":null,"stimulus":"<div style=\"width:400px; height: 400px; border-radius: 400px; background-color: #ffaa00;\"></div>","response":null,"color":"#ffaa00","task":"circle","trial_type":"html-keyboard-response","trial_index":51,"time_elapsed":85305,"internal_node_id":"0.0-2.0-0.49"},{"rt":null,"stimulus":"<div style=\"width:400px; height: 400px; border-radius: 400px; background-color: #0000ff;\"></div>","response":null,"color":"#0000ff","task":"circle","trial_type":"html-keyboard-response","trial_index":52,"time_elapsed":86018,"internal_node_id":"0.0-2.0-0.50"},{"rt":null,"stimulus":"<div style=\"width:400px; height: 400px; border-radius: 400px; background-color: #0000ff;\"></div>","response":null,"color":"#0000ff","task":"circle","trial_type":"html-keyboard-response","trial_index":53,"time_elapsed":86732,"internal_node_id":"0.0-2.0-0.51"},{"rt":null,"stimulus":"<div style=\"width:400px; height: 400px; border-radius: 400px; background-color: #0000ff;\"></div>","response":null,"color":"#0000ff","task":"circle","trial_type":"html-keyboard-response","trial_index":54,"time_elapsed":87447,"internal_node_id":"0.0-2.0-0.52"},{"rt":null,"stimulus":"<div style=\"width:400px; height: 400px; border-radius: 400px; background-color: #0000ff;\"></div>","response":null,"color":"#0000ff","task":"circle","trial_type":"html-keyboard-response","trial_index":55,"time_elapsed":88170,"internal_node_id":"0.0-2.0-0.53"},{"rt":null,"stimulus":"<div style=\"width:400px; height: 400px; border-radius: 400px; background-color: #0000ff;\"></div>","response":null,"color":"#0000ff","task":"circle","trial_type":"html-keyboard-response","trial_index":56,"time_elapsed":88892,"internal_node_id":"0.0-2.0-0.54"},{"rt":null,"stimulus":"<div style=\"width:400px; height: 400px; border-radius: 400px; background-color: #8000ff;\"></div>","response":null,"color":"#8000ff","task":"circle","trial_type":"html-keyboard-response","trial_index":57,"time_elapsed":89618,"internal_node_id":"0.0-2.0-0.55"},{"rt":null,"stimulus":"<div style=\"width:400px; height: 400px; border-radius: 400px; background-color: #0000ff;\"></div>","response":null,"color":"#0000ff","task":"circle","trial_type":"html-keyboard-response","trial_index":58,"time_elapsed":90328,"internal_node_id":"0.0-2.0-0.56"},{"rt":null,"stimulus":"<div style=\"width:400px; height: 400px; border-radius: 400px; background-color: #ffaa00;\"></div>","response":null,"color":"#ffaa00","task":"circle","trial_type":"html-keyboard-response","trial_index":59,"time_elapsed":91055,"internal_node_id":"0.0-2.0-0.57"},{"rt":null,"stimulus":"<div style=\"width:400px; height: 400px; border-radius: 400px; background-color: #0000ff;\"></div>","response":null,"color":"#0000ff","task":"circle","trial_type":"html-keyboard-response","trial_index":60,"time_elapsed":91767,"internal_node_id":"0.0-2.0-0.58"},{"rt":null,"stimulus":"<div style=\"width:400px; height: 400px; border-radius: 400px; background-color: #0000ff;\"></div>","response":null,"color":"#0000ff","task":"circle","trial_type":"html-keyboard-response","trial_index":61,"time_elapsed":92489,"internal_node_id":"0.0-2.0-0.59"},{"rt":null,"stimulus":"<div style=\"width:400px; height: 400px; border-radius: 400px; background-color: #0000ff;\"></div>","response":null,"color":"#0000ff","task":"circle","trial_type":"html-keyboard-response","trial_index":62,"time_elapsed":93217,"internal_node_id":"0.0-2.0-0.60"},{"rt":null,"stimulus":"<div style=\"width:400px; height: 400px; border-radius: 400px; background-color: #0000ff;\"></div>","response":null,"color":"#0000ff","task":"circle","trial_type":"html-keyboard-response","trial_index":63,"time_elapsed":93924,"internal_node_id":"0.0-2.0-0.61"},{"rt":null,"stimulus":"<div style=\"width:400px; height: 400px; border-radius: 400px; background-color: #0000ff;\"></div>","response":null,"color":"#0000ff","task":"circle","trial_type":"html-keyboard-response","trial_index":64,"time_elapsed":94626,"internal_node_id":"0.0-2.0-0.62"},{"rt":null,"stimulus":"<div style=\"width:400px; height: 400px; border-radius: 400px; background-color: #0000ff;\"></div>","response":null,"color":"#0000ff","task":"circle","trial_type":"html-keyboard-response","trial_index":65,"time_elapsed":95336,"internal_node_id":"0.0-2.0-0.63"},{"rt":null,"stimulus":"<div style=\"width:400px; height: 400px; border-radius: 400px; background-color: #ffaa00;\"></div>","response":null,"color":"#ffaa00","task":"circle","trial_type":"html-keyboard-response","trial_index":66,"time_elapsed":96061,"internal_node_id":"0.0-2.0-0.64"},{"rt":null,"stimulus":"<div style=\"width:400px; height: 400px; border-radius: 400px; background-color: #0000ff;\"></div>","response":null,"color":"#0000ff","task":"circle","trial_type":"html-keyboard-response","trial_index":67,"time_elapsed":96786,"internal_node_id":"0.0-2.0-0.65"},{"rt":null,"stimulus":"<div style=\"width:400px; height: 400px; border-radius: 400px; background-color: #0000ff;\"></div>","response":null,"color":"#0000ff","task":"circle","trial_type":"html-keyboard-response","trial_index":68,"time_elapsed":97504,"internal_node_id":"0.0-2.0-0.66"},{"rt":null,"stimulus":"<div style=\"width:400px; height: 400px; border-radius: 400px; background-color: #0000ff;\"></div>","response":null,"color":"#0000ff","task":"circle","trial_type":"html-keyboard-response","trial_index":69,"time_elapsed":98224,"internal_node_id":"0.0-2.0-0.67"},{"rt":null,"stimulus":"<div style=\"width:400px; height: 400px; border-radius: 400px; background-color: #0000ff;\"></div>","response":null,"color":"#0000ff","task":"circle","trial_type":"html-keyboard-response","trial_index":70,"time_elapsed":98930,"internal_node_id":"0.0-2.0-0.68"},{"rt":null,"stimulus":"<div style=\"width:400px; height: 400px; border-radius: 400px; background-color: #8000ff;\"></div>","response":null,"color":"#8000ff","task":"circle","trial_type":"html-keyboard-response","trial_index":71,"time_elapsed":99637,"internal_node_id":"0.0-2.0-0.69"},{"rt":null,"stimulus":"<div style=\"width:400px; height: 400px; border-radius: 400px; background-color: #0000ff;\"></div>","response":null,"color":"#0000ff","task":"circle","trial_type":"html-keyboard-response","trial_index":72,"time_elapsed":100359,"internal_node_id":"0.0-2.0-0.70"},{"rt":null,"stimulus":"<div style=\"width:400px; height: 400px; border-radius: 400px; background-color: #0000ff;\"></div>","response":null,"color":"#0000ff","task":"circle","trial_type":"html-keyboard-response","trial_index":73,"time_elapsed":101076,"internal_node_id":"0.0-2.0-0.71"},{"rt":null,"stimulus":"<div style=\"width:400px; height: 400px; border-radius: 400px; background-color: #0000ff;\"></div>","response":null,"color":"#0000ff","task":"circle","trial_type":"html-keyboard-response","trial_index":74,"time_elapsed":101803,"internal_node_id":"0.0-2.0-0.72"},{"rt":null,"stimulus":"<div style=\"width:400px; height: 400px; border-radius: 400px; background-color: #0000ff;\"></div>","response":null,"color":"#0000ff","task":"circle","trial_type":"html-keyboard-response","trial_index":75,"time_elapsed":102511,"internal_node_id":"0.0-2.0-0.73"},{"rt":null,"stimulus":"<div style=\"width:400px; height: 400px; border-radius: 400px; background-color: #0000ff;\"></div>","response":null,"color":"#0000ff","task":"circle","trial_type":"html-keyboard-response","trial_index":76,"time_elapsed":103217,"internal_node_id":"0.0-2.0-0.74"},{"rt":null,"stimulus":"<div style=\"width:400px; height: 400px; border-radius: 400px; background-color: #0000ff;\"></div>","response":null,"color":"#0000ff","task":"circle","trial_type":"html-keyboard-response","trial_index":77,"time_elapsed":103936,"internal_node_id":"0.0-2.0-0.75"},{"rt":null,"stimulus":"<div style=\"width:400px; height: 400px; border-radius: 400px; background-color: #0000ff;\"></div>","response":null,"color":"#0000ff","task":"circle","trial_type":"html-keyboard-response","trial_index":78,"time_elapsed":104653,"internal_node_id":"0.0-2.0-0.76"},{"rt":null,"stimulus":"<div style=\"width:400px; height: 400px; border-radius: 400px; background-color: #0000ff;\"></div>","response":null,"color":"#0000ff","task":"circle","trial_type":"html-keyboard-response","trial_index":79,"time_elapsed":105369,"internal_node_id":"0.0-2.0-0.77"},{"rt":null,"stimulus":"<div style=\"width:400px; height: 400px; border-radius: 400px; background-color: #8000ff;\"></div>","response":null,"color":"#8000ff","task":"circle","trial_type":"html-keyboard-response","trial_index":80,"time_elapsed":106087,"internal_node_id":"0.0-2.0-0.78"},{"rt":null,"stimulus":"<div style=\"width:400px; height: 400px; border-radius: 400px; background-color: #ffaa00;\"></div>","response":null,"color":"#ffaa00","task":"circle","trial_type":"html-keyboard-response","trial_index":81,"time_elapsed":106805,"internal_node_id":"0.0-2.0-0.79"},{"rt":null,"stimulus":"<div style=\"width:400px; height: 400px; border-radius: 400px; background-color: #0000ff;\"></div>","response":null,"color":"#0000ff","task":"circle","trial_type":"html-keyboard-response","trial_index":82,"time_elapsed":107520,"internal_node_id":"0.0-2.0-0.80"},{"rt":null,"stimulus":"<div style=\"width:400px; height: 400px; border-radius: 400px; background-color: #0000ff;\"></div>","response":null,"color":"#0000ff","task":"circle","trial_type":"html-keyboard-response","trial_index":83,"time_elapsed":108240,"internal_node_id":"0.0-2.0-0.81"},{"rt":null,"stimulus":"<div style=\"width:400px; height: 400px; border-radius: 400px; background-color: #0000ff;\"></div>","response":null,"color":"#0000ff","task":"circle","trial_type":"html-keyboard-response","trial_index":84,"time_elapsed":108965,"internal_node_id":"0.0-2.0-0.82"},{"rt":null,"stimulus":"<div style=\"width:400px; height: 400px; border-radius: 400px; background-color: #0000ff;\"></div>","response":null,"color":"#0000ff","task":"circle","trial_type":"html-keyboard-response","trial_index":85,"time_elapsed":109690,"internal_node_id":"0.0-2.0-0.83"},{"rt":null,"stimulus":"<div style=\"width:400px; height: 400px; border-radius: 400px; background-color: #0000ff;\"></div>","response":null,"color":"#0000ff","task":"circle","trial_type":"html-keyboard-response","trial_index":86,"time_elapsed":110403,"internal_node_id":"0.0-2.0-0.84"},{"rt":null,"stimulus":"<div style=\"width:400px; height: 400px; border-radius: 400px; background-color: #0000ff;\"></div>","response":null,"color":"#0000ff","task":"circle","trial_type":"html-keyboard-response","trial_index":87,"time_elapsed":111123,"internal_node_id":"0.0-2.0-0.85"},{"rt":null,"stimulus":"<div style=\"width:400px; height: 400px; border-radius: 400px; background-color: #8000ff;\"></div>","response":null,"color":"#8000ff","task":"circle","trial_type":"html-keyboard-response","trial_index":88,"time_elapsed":111836,"internal_node_id":"0.0-2.0-0.86"},{"rt":null,"stimulus":"<div style=\"width:400px; height: 400px; border-radius: 400px; background-color: #0000ff;\"></div>","response":null,"color":"#0000ff","task":"circle","trial_type":"html-keyboard-response","trial_index":89,"time_elapsed":112547,"internal_node_id":"0.0-2.0-0.87"},{"rt":null,"stimulus":"<div style=\"width:400px; height: 400px; border-radius: 400px; background-color: #ffaa00;\"></div>","response":null,"color":"#ffaa00","task":"circle","trial_type":"html-keyboard-response","trial_index":90,"time_elapsed":113268,"internal_node_id":"0.0-2.0-0.88"},{"rt":null,"stimulus":"<div style=\"width:400px; height: 400px; border-radius: 400px; background-color: #0000ff;\"></div>","response":null,"color":"#0000ff","task":"circle","trial_type":"html-keyboard-response","trial_index":91,"time_elapsed":113973,"internal_node_id":"0.0-2.0-0.89"},{"rt":null,"stimulus":"<div style=\"width:400px; height: 400px; border-radius: 400px; background-color: #0000ff;\"></div>","response":null,"color":"#0000ff","task":"circle","trial_type":"html-keyboard-response","trial_index":92,"time_elapsed":114686,"internal_node_id":"0.0-2.0-0.90"},{"rt":null,"stimulus":"<div style=\"width:400px; height: 400px; border-radius: 400px; background-color: #0000ff;\"></div>","response":null,"color":"#0000ff","task":"circle","trial_type":"html-keyboard-response","trial_index":93,"time_elapsed":115399,"internal_node_id":"0.0-2.0-0.91"},{"rt":null,"stimulus":"<div style=\"width:400px; height: 400px; border-radius: 400px; background-color: #0000ff;\"></div>","response":null,"color":"#0000ff","task":"circle","trial_type":"html-keyboard-response","trial_index":94,"time_elapsed":116111,"internal_node_id":"0.0-2.0-0.92"},{"rt":null,"stimulus":"<div style=\"width:400px; height: 400px; border-radius: 400px; background-color: #ffaa00;\"></div>","response":null,"color":"#ffaa00","task":"circle","trial_type":"html-keyboard-response","trial_index":95,"time_elapsed":116820,"internal_node_id":"0.0-2.0-0.93"},{"rt":null,"stimulus":"<div style=\"width:400px; height: 400px; border-radius: 400px; background-color: #0000ff;\"></div>","response":null,"color":"#0000ff","task":"circle","trial_type":"html-keyboard-response","trial_index":96,"time_elapsed":117538,"internal_node_id":"0.0-2.0-0.94"},{"rt":null,"stimulus":"<div style=\"width:400px; height: 400px; border-radius: 400px; background-color: #0000ff;\"></div>","response":null,"color":"#0000ff","task":"circle","trial_type":"html-keyboard-response","trial_index":97,"time_elapsed":118251,"internal_node_id":"0.0-2.0-0.95"},{"rt":null,"stimulus":"<div style=\"width:400px; height: 400px; border-radius: 400px; background-color: #0000ff;\"></div>","response":null,"color":"#0000ff","task":"circle","trial_type":"html-keyboard-response","trial_index":98,"time_elapsed":118957,"internal_node_id":"0.0-2.0-0.96"},{"rt":null,"stimulus":"<div style=\"width:400px; height: 400px; border-radius: 400px; background-color: #0000ff;\"></div>","response":null,"color":"#0000ff","task":"circle","trial_type":"html-keyboard-response","trial_index":99,"time_elapsed":119673,"internal_node_id":"0.0-2.0-0.97"},{"rt":null,"stimulus":"<div style=\"width:400px; height: 400px; border-radius: 400px; background-color: #0000ff;\"></div>","response":null,"color":"#0000ff","task":"circle","trial_type":"html-keyboard-response","trial_index":100,"time_elapsed":120380,"internal_node_id":"0.0-2.0-0.98"},{"rt":null,"stimulus":"<div style=\"width:400px; height: 400px; border-radius: 400px; background-color: #8000ff;\"></div>","response":null,"color":"#8000ff","task":"circle","trial_type":"html-keyboard-response","trial_index":101,"time_elapsed":121104,"internal_node_id":"0.0-2.0-0.99"},{"rt":null,"stimulus":"<div style=\"width:400px; height: 400px; border-radius: 400px; background-color: #0000ff;\"></div>","response":null,"color":"#0000ff","task":"circle","trial_type":"html-keyboard-response","trial_index":102,"time_elapsed":121817,"internal_node_id":"0.0-2.0-0.100"},{"rt":null,"stimulus":"<div style=\"width:400px; height: 400px; border-radius: 400px; background-color: #0000ff;\"></div>","response":null,"color":"#0000ff","task":"circle","trial_type":"html-keyboard-response","trial_index":103,"time_elapsed":122540,"internal_node_id":"0.0-2.0-0.101"},{"rt":null,"stimulus":"<div style=\"width:400px; height: 400px; border-radius: 400px; background-color: #ffaa00;\"></div>","response":null,"color":"#ffaa00","task":"circle","trial_type":"html-keyboard-response","trial_index":104,"time_elapsed":123255,"internal_node_id":"0.0-2.0-0.102"},{"rt":null,"stimulus":"<div style=\"width:400px; height: 400px; border-radius: 400px; background-color: #0000ff;\"></div>","response":null,"color":"#0000ff","task":"circle","trial_type":"html-keyboard-response","trial_index":105,"time_elapsed":123971,"internal_node_id":"0.0-2.0-0.103"},{"rt":null,"stimulus":"<div style=\"width:400px; height: 400px; border-radius: 400px; background-color: #0000ff;\"></div>","response":null,"color":"#0000ff","task":"circle","trial_type":"html-keyboard-response","trial_index":106,"time_elapsed":124692,"internal_node_id":"0.0-2.0-0.104"},{"rt":null,"stimulus":"<div style=\"width:400px; height: 400px; border-radius: 400px; background-color: #0000ff;\"></div>","response":null,"color":"#0000ff","task":"circle","trial_type":"html-keyboard-response","trial_index":107,"time_elapsed":125406,"internal_node_id":"0.0-2.0-0.105"},{"rt":null,"stimulus":"<div style=\"width:400px; height: 400px; border-radius: 400px; background-color: #0000ff;\"></div>","response":null,"color":"#0000ff","task":"circle","trial_type":"html-keyboard-response","trial_index":108,"time_elapsed":126124,"internal_node_id":"0.0-2.0-0.106"},{"rt":null,"stimulus":"<div style=\"width:400px; height: 400px; border-radius: 400px; background-color: #0000ff;\"></div>","response":null,"color":"#0000ff","task":"circle","trial_type":"html-keyboard-response","trial_index":109,"time_elapsed":126839,"internal_node_id":"0.0-2.0-0.107"},{"rt":null,"stimulus":"<div style=\"width:400px; height: 400px; border-radius: 400px; background-color: #0000ff;\"></div>","response":null,"color":"#0000ff","task":"circle","trial_type":"html-keyboard-response","trial_index":110,"time_elapsed":127555,"internal_node_id":"0.0-2.0-0.108"},{"rt":null,"stimulus":"<div style=\"width:400px; height: 400px; border-radius: 400px; background-color: #8000ff;\"></div>","response":null,"color":"#8000ff","task":"circle","trial_type":"html-keyboard-response","trial_index":111,"time_elapsed":128273,"internal_node_id":"0.0-2.0-0.109"},{"rt":null,"stimulus":"<div style=\"width:400px; height: 400px; border-radius: 400px; background-color: #0000ff;\"></div>","response":null,"color":"#0000ff","task":"circle","trial_type":"html-keyboard-response","trial_index":112,"time_elapsed":128985,"internal_node_id":"0.0-2.0-0.110"},{"rt":null,"stimulus":"<div style=\"width:400px; height: 400px; border-radius: 400px; background-color: #0000ff;\"></div>","response":null,"color":"#0000ff","task":"circle","trial_type":"html-keyboard-response","trial_index":113,"time_elapsed":129695,"internal_node_id":"0.0-2.0-0.111"},{"rt":null,"stimulus":"<div style=\"width:400px; height: 400px; border-radius: 400px; background-color: #0000ff;\"></div>","response":null,"color":"#0000ff","task":"circle","trial_type":"html-keyboard-response","trial_index":114,"time_elapsed":130409,"internal_node_id":"0.0-2.0-0.112"},{"rt":null,"stimulus":"<div style=\"width:400px; height: 400px; border-radius: 400px; background-color: #0000ff;\"></div>","response":null,"color":"#0000ff","task":"circle","trial_type":"html-keyboard-response","trial_index":115,"time_elapsed":131135,"internal_node_id":"0.0-2.0-0.113"},{"rt":null,"stimulus":"<div style=\"width:400px; height: 400px; border-radius: 400px; background-color: #ffaa00;\"></div>","response":null,"color":"#ffaa00","task":"circle","trial_type":"html-keyboard-response","trial_index":116,"time_elapsed":131853,"internal_node_id":"0.0-2.0-0.114"},{"rt":null,"stimulus":"<div style=\"width:400px; height: 400px; border-radius: 400px; background-color: #0000ff;\"></div>","response":null,"color":"#0000ff","task":"circle","trial_type":"html-keyboard-response","trial_index":117,"time_elapsed":132581,"internal_node_id":"0.0-2.0-0.115"},{"rt":null,"stimulus":"<div style=\"width:400px; height: 400px; border-radius: 400px; background-color: #0000ff;\"></div>","response":null,"color":"#0000ff","task":"circle","trial_type":"html-keyboard-response","trial_index":118,"time_elapsed":133303,"internal_node_id":"0.0-2.0-0.116"},{"rt":null,"stimulus":"<div style=\"width:400px; height: 400px; border-radius: 400px; background-color: #8000ff;\"></div>","response":null,"color":"#8000ff","task":"circle","trial_type":"html-keyboard-response","trial_index":119,"time_elapsed":134019,"internal_node_id":"0.0-2.0-0.117"},{"rt":null,"stimulus":"<div style=\"width:400px; height: 400px; border-radius: 400px; background-color: #0000ff;\"></div>","response":null,"color":"#0000ff","task":"circle","trial_type":"html-keyboard-response","trial_index":120,"time_elapsed":134731,"internal_node_id":"0.0-2.0-0.118"},{"rt":null,"stimulus":"<div style=\"width:400px; height: 400px; border-radius: 400px; background-color: #0000ff;\"></div>","response":null,"color":"#0000ff","task":"circle","trial_type":"html-keyboard-response","trial_index":121,"time_elapsed":135456,"internal_node_id":"0.0-2.0-0.119"},{"rt":null,"stimulus":"<div style=\"width:400px; height: 400px; border-radius: 400px; background-color: #0000ff;\"></div>","response":null,"color":"#0000ff","task":"circle","trial_type":"html-keyboard-response","trial_index":122,"time_elapsed":136165,"internal_node_id":"0.0-2.0-0.120"},{"rt":null,"stimulus":"<div style=\"width:400px; height: 400px; border-radius: 400px; background-color: #ffaa00;\"></div>","response":null,"color":"#ffaa00","task":"circle","trial_type":"html-keyboard-response","trial_index":123,"time_elapsed":136891,"internal_node_id":"0.0-2.0-0.121"},{"rt":null,"stimulus":"<div style=\"width:400px; height: 400px; border-radius: 400px; background-color: #0000ff;\"></div>","response":null,"color":"#0000ff","task":"circle","trial_type":"html-keyboard-response","trial_index":124,"time_elapsed":137609,"internal_node_id":"0.0-2.0-0.122"},{"rt":null,"stimulus":"<div style=\"width:400px; height: 400px; border-radius: 400px; background-color: #0000ff;\"></div>","response":null,"color":"#0000ff","task":"circle","trial_type":"html-keyboard-response","trial_index":125,"time_elapsed":138332,"internal_node_id":"0.0-2.0-0.123"},{"rt":null,"stimulus":"<div style=\"width:400px; height: 400px; border-radius: 400px; background-color: #0000ff;\"></div>","response":null,"color":"#0000ff","task":"circle","trial_type":"html-keyboard-response","trial_index":126,"time_elapsed":139040,"internal_node_id":"0.0-2.0-0.124"},{"rt":null,"stimulus":"<div style=\"width:400px; height: 400px; border-radius: 400px; background-color: #0000ff;\"></div>","response":null,"color":"#0000ff","task":"circle","trial_type":"html-keyboard-response","trial_index":127,"time_elapsed":139758,"internal_node_id":"0.0-2.0-0.125"},{"rt":null,"stimulus":"<div style=\"width:400px; height: 400px; border-radius: 400px; background-color: #0000ff;\"></div>","response":null,"color":"#0000ff","task":"circle","trial_type":"html-keyboard-response","trial_index":128,"time_elapsed":140477,"internal_node_id":"0.0-2.0-0.126"},{"rt":null,"stimulus":"<div style=\"width:400px; height: 400px; border-radius: 400px; background-color: #0000ff;\"></div>","response":null,"color":"#0000ff","task":"circle","trial_type":"html-keyboard-response","trial_index":129,"time_elapsed":141195,"internal_node_id":"0.0-2.0-0.127"},{"rt":null,"stimulus":"<div style=\"width:400px; height: 400px; border-radius: 400px; background-color: #8000ff;\"></div>","response":null,"color":"#8000ff","task":"circle","trial_type":"html-keyboard-response","trial_index":130,"time_elapsed":141919,"internal_node_id":"0.0-2.0-0.128"},{"rt":null,"stimulus":"<div style=\"width:400px; height: 400px; border-radius: 400px; background-color: #0000ff;\"></div>","response":null,"color":"#0000ff","task":"circle","trial_type":"html-keyboard-response","trial_index":131,"time_elapsed":142634,"internal_node_id":"0.0-2.0-0.129"},{"rt":null,"stimulus":"<div style=\"width:400px; height: 400px; border-radius: 400px; background-color: #0000ff;\"></div>","response":null,"color":"#0000ff","task":"circle","trial_type":"html-keyboard-response","trial_index":132,"time_elapsed":143342,"internal_node_id":"0.0-2.0-0.130"},{"rt":null,"stimulus":"<div style=\"width:400px; height: 400px; border-radius: 400px; background-color: #0000ff;\"></div>","response":null,"color":"#0000ff","task":"circle","trial_type":"html-keyboard-response","trial_index":133,"time_elapsed":144047,"internal_node_id":"0.0-2.0-0.131"},{"rt":null,"stimulus":"<div style=\"width:400px; height: 400px; border-radius: 400px; background-color: #0000ff;\"></div>","response":null,"color":"#0000ff","task":"circle","trial_type":"html-keyboard-response","trial_index":134,"time_elapsed":144759,"internal_node_id":"0.0-2.0-0.132"},{"rt":null,"stimulus":"<div style=\"width:400px; height: 400px; border-radius: 400px; background-color: #0000ff;\"></div>","response":null,"color":"#0000ff","task":"circle","trial_type":"html-keyboard-response","trial_index":135,"time_elapsed":145474,"internal_node_id":"0.0-2.0-0.133"},{"rt":null,"stimulus":"<div style=\"width:400px; height: 400px; border-radius: 400px; background-color: #0000ff;\"></div>","response":null,"color":"#0000ff","task":"circle","trial_type":"html-keyboard-response","trial_index":136,"time_elapsed":146193,"internal_node_id":"0.0-2.0-0.134"},{"rt":null,"stimulus":"<div style=\"width:400px; height: 400px; border-radius: 400px; background-color: #0000ff;\"></div>","response":null,"color":"#0000ff","task":"circle","trial_type":"html-keyboard-response","trial_index":137,"time_elapsed":146913,"internal_node_id":"0.0-2.0-0.135"},{"rt":null,"stimulus":"<div style=\"width:400px; height: 400px; border-radius: 400px; background-color: #0000ff;\"></div>","response":null,"color":"#0000ff","task":"circle","trial_type":"html-keyboard-response","trial_index":138,"time_elapsed":147638,"internal_node_id":"0.0-2.0-0.136"},{"rt":null,"stimulus":"<div style=\"width:400px; height: 400px; border-radius: 400px; background-color: #0000ff;\"></div>","response":null,"color":"#0000ff","task":"circle","trial_type":"html-keyboard-response","trial_index":139,"time_elapsed":148356,"internal_node_id":"0.0-2.0-0.137"},{"rt":null,"stimulus":"<div style=\"width:400px; height: 400px; border-radius: 400px; background-color: #8000ff;\"></div>","response":null,"color":"#8000ff","task":"circle","trial_type":"html-keyboard-response","trial_index":140,"time_elapsed":149063,"internal_node_id":"0.0-2.0-0.138"},{"rt":null,"stimulus":"<div style=\"width:400px; height: 400px; border-radius: 400px; background-color: #ffaa00;\"></div>","response":null,"color":"#ffaa00","task":"circle","trial_type":"html-keyboard-response","trial_index":141,"time_elapsed":149777,"internal_node_id":"0.0-2.0-0.139"},{"rt":null,"stimulus":"<div style=\"width:400px; height: 400px; border-radius: 400px; background-color: #0000ff;\"></div>","response":null,"color":"#0000ff","task":"circle","trial_type":"html-keyboard-response","trial_index":142,"time_elapsed":150494,"internal_node_id":"0.0-2.0-0.140"},{"rt":null,"stimulus":"<div style=\"width:400px; height: 400px; border-radius: 400px; background-color: #0000ff;\"></div>","response":null,"color":"#0000ff","task":"circle","trial_type":"html-keyboard-response","trial_index":143,"time_elapsed":151212,"internal_node_id":"0.0-2.0-0.141"},{"rt":null,"stimulus":"<div style=\"width:400px; height: 400px; border-radius: 400px; background-color: #8000ff;\"></div>","response":null,"color":"#8000ff","task":"circle","trial_type":"html-keyboard-response","trial_index":144,"time_elapsed":151928,"internal_node_id":"0.0-2.0-0.142"},{"rt":null,"stimulus":"<div style=\"width:400px; height: 400px; border-radius: 400px; background-color: #0000ff;\"></div>","response":null,"color":"#0000ff","task":"circle","trial_type":"html-keyboard-response","trial_index":145,"time_elapsed":152646,"internal_node_id":"0.0-2.0-0.143"},{"rt":null,"stimulus":"<div style=\"width:400px; height: 400px; border-radius: 400px; background-color: #0000ff;\"></div>","response":null,"color":"#0000ff","task":"circle","trial_type":"html-keyboard-response","trial_index":146,"time_elapsed":153361,"internal_node_id":"0.0-2.0-0.144"},{"rt":null,"stimulus":"<div style=\"width:400px; height: 400px; border-radius: 400px; background-color: #0000ff;\"></div>","response":null,"color":"#0000ff","task":"circle","trial_type":"html-keyboard-response","trial_index":147,"time_elapsed":154069,"internal_node_id":"0.0-2.0-0.145"},{"rt":null,"stimulus":"<div style=\"width:400px; height: 400px; border-radius: 400px; background-color: #0000ff;\"></div>","response":null,"color":"#0000ff","task":"circle","trial_type":"html-keyboard-response","trial_index":148,"time_elapsed":154772,"internal_node_id":"0.0-2.0-0.146"},{"rt":null,"stimulus":"<div style=\"width:400px; height: 400px; border-radius: 400px; background-color: #0000ff;\"></div>","response":null,"color":"#0000ff","task":"circle","trial_type":"html-keyboard-response","trial_index":149,"time_elapsed":155500,"internal_node_id":"0.0-2.0-0.147"},{"rt":null,"stimulus":"<div style=\"width:400px; height: 400px; border-radius: 400px; background-color: #ffaa00;\"></div>","response":null,"color":"#ffaa00","task":"circle","trial_type":"html-keyboard-response","trial_index":150,"time_elapsed":156219,"internal_node_id":"0.0-2.0-0.148"},{"rt":null,"stimulus":"<div style=\"width:400px; height: 400px; border-radius: 400px; background-color: #0000ff;\"></div>","response":null,"color":"#0000ff","task":"circle","trial_type":"html-keyboard-response","trial_index":151,"time_elapsed":156939,"internal_node_id":"0.0-2.0-0.149"},{"rt":null,"stimulus":"<div style=\"width:400px; height: 400px; border-radius: 400px; background-color: #ffaa00;\"></div>","response":null,"color":"#ffaa00","task":"circle","trial_type":"html-keyboard-response","trial_index":152,"time_elapsed":157656,"internal_node_id":"0.0-2.0-0.150"},{"rt":null,"stimulus":"<div style=\"width:400px; height: 400px; border-radius: 400px; background-color: #8000ff;\"></div>","response":null,"color":"#8000ff","task":"circle","trial_type":"html-keyboard-response","trial_index":153,"time_elapsed":158375,"internal_node_id":"0.0-2.0-0.151"},{"rt":null,"stimulus":"<div style=\"width:400px; height: 400px; border-radius: 400px; background-color: #0000ff;\"></div>","response":null,"color":"#0000ff","task":"circle","trial_type":"html-keyboard-response","trial_index":154,"time_elapsed":159084,"internal_node_id":"0.0-2.0-0.152"},{"rt":null,"stimulus":"<div style=\"width:400px; height: 400px; border-radius: 400px; background-color: #0000ff;\"></div>","response":null,"color":"#0000ff","task":"circle","trial_type":"html-keyboard-response","trial_index":155,"time_elapsed":159794,"internal_node_id":"0.0-2.0-0.153"},{"rt":null,"stimulus":"<div style=\"width:400px; height: 400px; border-radius: 400px; background-color: #0000ff;\"></div>","response":null,"color":"#0000ff","task":"circle","trial_type":"html-keyboard-response","trial_index":156,"time_elapsed":160499,"internal_node_id":"0.0-2.0-0.154"},{"rt":null,"stimulus":"<div style=\"width:400px; height: 400px; border-radius: 400px; background-color: #0000ff;\"></div>","response":null,"color":"#0000ff","task":"circle","trial_type":"html-keyboard-response","trial_index":157,"time_elapsed":161223,"internal_node_id":"0.0-2.0-0.155"},{"rt":null,"stimulus":"<div style=\"width:400px; height: 400px; border-radius: 400px; background-color: #0000ff;\"></div>","response":null,"color":"#0000ff","task":"circle","trial_type":"html-keyboard-response","trial_index":158,"time_elapsed":161948,"internal_node_id":"0.0-2.0-0.156"},{"rt":null,"stimulus":"<div style=\"width:400px; height: 400px; border-radius: 400px; background-color: #0000ff;\"></div>","response":null,"color":"#0000ff","task":"circle","trial_type":"html-keyboard-response","trial_index":159,"time_elapsed":162658,"internal_node_id":"0.0-2.0-0.157"},{"rt":null,"stimulus":"<div style=\"width:400px; height: 400px; border-radius: 400px; background-color: #0000ff;\"></div>","response":null,"color":"#0000ff","task":"circle","trial_type":"html-keyboard-response","trial_index":160,"time_elapsed":163364,"internal_node_id":"0.0-2.0-0.158"},{"rt":null,"stimulus":"<div style=\"width:400px; height: 400px; border-radius: 400px; background-color: #0000ff;\"></div>","response":null,"color":"#0000ff","task":"circle","trial_type":"html-keyboard-response","trial_index":161,"time_elapsed":164073,"internal_node_id":"0.0-2.0-0.159"},{"rt":null,"stimulus":"<div style=\"width:400px; height: 400px; border-radius: 400px; background-color: #0000ff;\"></div>","response":null,"color":"#0000ff","task":"circle","trial_type":"html-keyboard-response","trial_index":162,"time_elapsed":164783,"internal_node_id":"0.0-2.0-0.160"},{"rt":null,"stimulus":"<div style=\"width:400px; height: 400px; border-radius: 400px; background-color: #0000ff;\"></div>","response":null,"color":"#0000ff","task":"circle","trial_type":"html-keyboard-response","trial_index":163,"time_elapsed":165496,"internal_node_id":"0.0-2.0-0.161"},{"rt":null,"stimulus":"<div style=\"width:400px; height: 400px; border-radius: 400px; background-color: #8000ff;\"></div>","response":null,"color":"#8000ff","task":"circle","trial_type":"html-keyboard-response","trial_index":164,"time_elapsed":166206,"internal_node_id":"0.0-2.0-0.162"},{"rt":null,"stimulus":"<div style=\"width:400px; height: 400px; border-radius: 400px; background-color: #0000ff;\"></div>","response":null,"color":"#0000ff","task":"circle","trial_type":"html-keyboard-response","trial_index":165,"time_elapsed":166923,"internal_node_id":"0.0-2.0-0.163"},{"rt":null,"stimulus":"<div style=\"width:400px; height: 400px; border-radius: 400px; background-color: #0000ff;\"></div>","response":null,"color":"#0000ff","task":"circle","trial_type":"html-keyboard-response","trial_index":166,"time_elapsed":167637,"internal_node_id":"0.0-2.0-0.164"},{"rt":null,"stimulus":"<div style=\"width:400px; height: 400px; border-radius: 400px; background-color: #0000ff;\"></div>","response":null,"color":"#0000ff","task":"circle","trial_type":"html-keyboard-response","trial_index":167,"time_elapsed":168366,"internal_node_id":"0.0-2.0-0.165"},{"rt":null,"stimulus":"<div style=\"width:400px; height: 400px; border-radius: 400px; background-color: #0000ff;\"></div>","response":null,"color":"#0000ff","task":"circle","trial_type":"html-keyboard-response","trial_index":168,"time_elapsed":169087,"internal_node_id":"0.0-2.0-0.166"},{"rt":null,"stimulus":"<div style=\"width:400px; height: 400px; border-radius: 400px; background-color: #0000ff;\"></div>","response":null,"color":"#0000ff","task":"circle","trial_type":"html-keyboard-response","trial_index":169,"time_elapsed":169804,"internal_node_id":"0.0-2.0-0.167"},{"rt":null,"stimulus":"<div style=\"width:400px; height: 400px; border-radius: 400px; background-color: #ffaa00;\"></div>","response":null,"color":"#ffaa00","task":"circle","trial_type":"html-keyboard-response","trial_index":170,"time_elapsed":170519,"internal_node_id":"0.0-2.0-0.168"},{"rt":null,"stimulus":"<div style=\"width:400px; height: 400px; border-radius: 400px; background-color: #0000ff;\"></div>","response":null,"color":"#0000ff","task":"circle","trial_type":"html-keyboard-response","trial_index":171,"time_elapsed":171240,"internal_node_id":"0.0-2.0-0.169"},{"rt":null,"stimulus":"<div style=\"width:400px; height: 400px; border-radius: 400px; background-color: #0000ff;\"></div>","response":null,"color":"#0000ff","task":"circle","trial_type":"html-keyboard-response","trial_index":172,"time_elapsed":171951,"internal_node_id":"0.0-2.0-0.170"},{"rt":null,"stimulus":"<div style=\"width:400px; height: 400px; border-radius: 400px; background-color: #0000ff;\"></div>","response":null,"color":"#0000ff","task":"circle","trial_type":"html-keyboard-response","trial_index":173,"time_elapsed":172665,"internal_node_id":"0.0-2.0-0.171"},{"rt":null,"stimulus":"<div style=\"width:400px; height: 400px; border-radius: 400px; background-color: #0000ff;\"></div>","response":null,"color":"#0000ff","task":"circle","trial_type":"html-keyboard-response","trial_index":174,"time_elapsed":173387,"internal_node_id":"0.0-2.0-0.172"},{"rt":null,"stimulus":"<div style=\"width:400px; height: 400px; border-radius: 400px; background-color: #0000ff;\"></div>","response":null,"color":"#0000ff","task":"circle","trial_type":"html-keyboard-response","trial_index":175,"time_elapsed":174104,"internal_node_id":"0.0-2.0-0.173"},{"rt":null,"stimulus":"<div style=\"width:400px; height: 400px; border-radius: 400px; background-color: #ffaa00;\"></div>","response":null,"color":"#ffaa00","task":"circle","trial_type":"html-keyboard-response","trial_index":176,"time_elapsed":174826,"internal_node_id":"0.0-2.0-0.174"},{"rt":null,"stimulus":"<div style=\"width:400px; height: 400px; border-radius: 400px; background-color: #0000ff;\"></div>","response":null,"color":"#0000ff","task":"circle","trial_type":"html-keyboard-response","trial_index":177,"time_elapsed":175550,"internal_node_id":"0.0-2.0-0.175"},{"rt":null,"stimulus":"<div style=\"width:400px; height: 400px; border-radius: 400px; background-color: #0000ff;\"></div>","response":null,"color":"#0000ff","task":"circle","trial_type":"html-keyboard-response","trial_index":178,"time_elapsed":176257,"internal_node_id":"0.0-2.0-0.176"},{"rt":null,"stimulus":"<div style=\"width:400px; height: 400px; border-radius: 400px; background-color: #0000ff;\"></div>","response":null,"color":"#0000ff","task":"circle","trial_type":"html-keyboard-response","trial_index":179,"time_elapsed":176975,"internal_node_id":"0.0-2.0-0.177"},{"rt":null,"stimulus":"<div style=\"width:400px; height: 400px; border-radius: 400px; background-color: #8000ff;\"></div>","response":null,"color":"#8000ff","task":"circle","trial_type":"html-keyboard-response","trial_index":180,"time_elapsed":177691,"internal_node_id":"0.0-2.0-0.178"},{"rt":null,"stimulus":"<div style=\"width:400px; height: 400px; border-radius: 400px; background-color: #0000ff;\"></div>","response":null,"color":"#0000ff","task":"circle","trial_type":"html-keyboard-response","trial_index":181,"time_elapsed":178407,"internal_node_id":"0.0-2.0-0.179"},{"rt":null,"stimulus":"<div style=\"width:400px; height: 400px; border-radius: 400px; background-color: #8000ff;\"></div>","response":null,"color":"#8000ff","task":"circle","trial_type":"html-keyboard-response","trial_index":182,"time_elapsed":179114,"internal_node_id":"0.0-2.0-0.180"},{"rt":null,"stimulus":"<div style=\"width:400px; height: 400px; border-radius: 400px; background-color: #ffaa00;\"></div>","response":null,"color":"#ffaa00","task":"circle","trial_type":"html-keyboard-response","trial_index":183,"time_elapsed":179822,"internal_node_id":"0.0-2.0-0.181"},{"rt":null,"stimulus":"<div style=\"width:400px; height: 400px; border-radius: 400px; background-color: #0000ff;\"></div>","response":null,"color":"#0000ff","task":"circle","trial_type":"html-keyboard-response","trial_index":184,"time_elapsed":180546,"internal_node_id":"0.0-2.0-0.182"},{"rt":null,"stimulus":"<div style=\"width:400px; height: 400px; border-radius: 400px; background-color: #0000ff;\"></div>","response":null,"color":"#0000ff","task":"circle","trial_type":"html-keyboard-response","trial_index":185,"time_elapsed":181265,"internal_node_id":"0.0-2.0-0.183"},{"rt":null,"stimulus":"<div style=\"width:400px; height: 400px; border-radius: 400px; background-color: #0000ff;\"></div>","response":null,"color":"#0000ff","task":"circle","trial_type":"html-keyboard-response","trial_index":186,"time_elapsed":181973,"internal_node_id":"0.0-2.0-0.184"},{"rt":null,"stimulus":"<div style=\"width:400px; height: 400px; border-radius: 400px; background-color: #0000ff;\"></div>","response":null,"color":"#0000ff","task":"circle","trial_type":"html-keyboard-response","trial_index":187,"time_elapsed":182684,"internal_node_id":"0.0-2.0-0.185"},{"rt":null,"stimulus":"<div style=\"width:400px; height: 400px; border-radius: 400px; background-color: #0000ff;\"></div>","response":null,"color":"#0000ff","task":"circle","trial_type":"html-keyboard-response","trial_index":188,"time_elapsed":183389,"internal_node_id":"0.0-2.0-0.186"},{"rt":null,"stimulus":"<div style=\"width:400px; height: 400px; border-radius: 400px; background-color: #0000ff;\"></div>","response":null,"color":"#0000ff","task":"circle","trial_type":"html-keyboard-response","trial_index":189,"time_elapsed":184101,"internal_node_id":"0.0-2.0-0.187"},{"rt":null,"stimulus":"<div style=\"width:400px; height: 400px; border-radius: 400px; background-color: #0000ff;\"></div>","response":null,"color":"#0000ff","task":"circle","trial_type":"html-keyboard-response","trial_index":190,"time_elapsed":184820,"internal_node_id":"0.0-2.0-0.188"},{"rt":null,"stimulus":"<div style=\"width:400px; height: 400px; border-radius: 400px; background-color: #0000ff;\"></div>","response":null,"color":"#0000ff","task":"circle","trial_type":"html-keyboard-response","trial_index":191,"time_elapsed":185528,"internal_node_id":"0.0-2.0-0.189"},{"rt":null,"stimulus":"<div style=\"width:400px; height: 400px; border-radius: 400px; background-color: #0000ff;\"></div>","response":null,"color":"#0000ff","task":"circle","trial_type":"html-keyboard-response","trial_index":192,"time_elapsed":186258,"internal_node_id":"0.0-2.0-0.190"},{"rt":null,"stimulus":"<div style=\"width:400px; height: 400px; border-radius: 400px; background-color: #0000ff;\"></div>","response":null,"color":"#0000ff","task":"circle","trial_type":"html-keyboard-response","trial_index":193,"time_elapsed":186976,"internal_node_id":"0.0-2.0-0.191"},{"rt":null,"stimulus":"<div style=\"width:400px; height: 400px; border-radius: 400px; background-color: #8000ff;\"></div>","response":null,"color":"#8000ff","task":"circle","trial_type":"html-keyboard-response","trial_index":194,"time_elapsed":187700,"internal_node_id":"0.0-2.0-0.192"},{"rt":null,"stimulus":"<div style=\"width:400px; height: 400px; border-radius: 400px; background-color: #0000ff;\"></div>","response":null,"color":"#0000ff","task":"circle","trial_type":"html-keyboard-response","trial_index":195,"time_elapsed":188414,"internal_node_id":"0.0-2.0-0.193"},{"rt":null,"stimulus":"<div style=\"width:400px; height: 400px; border-radius: 400px; background-color: #ffaa00;\"></div>","response":null,"color":"#ffaa00","task":"circle","trial_type":"html-keyboard-response","trial_index":196,"time_elapsed":189134,"internal_node_id":"0.0-2.0-0.194"},{"rt":null,"stimulus":"<div style=\"width:400px; height: 400px; border-radius: 400px; background-color: #0000ff;\"></div>","response":null,"color":"#0000ff","task":"circle","trial_type":"html-keyboard-response","trial_index":197,"time_elapsed":189841,"internal_node_id":"0.0-2.0-0.195"},{"rt":null,"stimulus":"<div style=\"width:400px; height: 400px; border-radius: 400px; background-color: #0000ff;\"></div>","response":null,"color":"#0000ff","task":"circle","trial_type":"html-keyboard-response","trial_index":198,"time_elapsed":190561,"internal_node_id":"0.0-2.0-0.196"},{"rt":null,"stimulus":"<div style=\"width:400px; height: 400px; border-radius: 400px; background-color: #0000ff;\"></div>","response":null,"color":"#0000ff","task":"circle","trial_type":"html-keyboard-response","trial_index":199,"time_elapsed":191270,"internal_node_id":"0.0-2.0-0.197"},{"rt":null,"stimulus":"<div style=\"width:400px; height: 400px; border-radius: 400px; background-color: #0000ff;\"></div>","response":null,"color":"#0000ff","task":"circle","trial_type":"html-keyboard-response","trial_index":200,"time_elapsed":191990,"internal_node_id":"0.0-2.0-0.198"},{"rt":null,"stimulus":"<div style=\"width:400px; height: 400px; border-radius: 400px; background-color: #0000ff;\"></div>","response":null,"color":"#0000ff","task":"circle","trial_type":"html-keyboard-response","trial_index":201,"time_elapsed":192693,"internal_node_id":"0.0-2.0-0.199"},{"rt":null,"stimulus":"<div style=\"width:400px; height: 400px; border-radius: 400px; background-color: #8000ff;\"></div>","response":null,"color":"#8000ff","task":"circle","trial_type":"html-keyboard-response","trial_index":202,"time_elapsed":193410,"internal_node_id":"0.0-2.0-0.200"},{"rt":null,"stimulus":"<div style=\"width:400px; height: 400px; border-radius: 400px; background-color: #0000ff;\"></div>","response":null,"color":"#0000ff","task":"circle","trial_type":"html-keyboard-response","trial_index":203,"time_elapsed":194123,"internal_node_id":"0.0-2.0-0.201"},{"rt":null,"stimulus":"<div style=\"width:400px; height: 400px; border-radius: 400px; background-color: #0000ff;\"></div>","response":null,"color":"#0000ff","task":"circle","trial_type":"html-keyboard-response","trial_index":204,"time_elapsed":194840,"internal_node_id":"0.0-2.0-0.202"},{"rt":null,"stimulus":"<div style=\"width:400px; height: 400px; border-radius: 400px; background-color: #0000ff;\"></div>","response":null,"color":"#0000ff","task":"circle","trial_type":"html-keyboard-response","trial_index":205,"time_elapsed":195557,"internal_node_id":"0.0-2.0-0.203"},{"rt":null,"stimulus":"<div style=\"width:400px; height: 400px; border-radius: 400px; background-color: #0000ff;\"></div>","response":null,"color":"#0000ff","task":"circle","trial_type":"html-keyboard-response","trial_index":206,"time_elapsed":196274,"internal_node_id":"0.0-2.0-0.204"},{"rt":null,"stimulus":"<div style=\"width:400px; height: 400px; border-radius: 400px; background-color: #0000ff;\"></div>","response":null,"color":"#0000ff","task":"circle","trial_type":"html-keyboard-response","trial_index":207,"time_elapsed":196989,"internal_node_id":"0.0-2.0-0.205"},{"rt":null,"stimulus":"<div style=\"width:400px; height: 400px; border-radius: 400px; background-color: #0000ff;\"></div>","response":null,"color":"#0000ff","task":"circle","trial_type":"html-keyboard-response","trial_index":208,"time_elapsed":197695,"internal_node_id":"0.0-2.0-0.206"},{"rt":null,"stimulus":"<div style=\"width:400px; height: 400px; border-radius: 400px; background-color: #ffaa00;\"></div>","response":null,"color":"#ffaa00","task":"circle","trial_type":"html-keyboard-response","trial_index":209,"time_elapsed":198424,"internal_node_id":"0.0-2.0-0.207"},{"rt":null,"stimulus":"<div style=\"width:400px; height: 400px; border-radius: 400px; background-color: #0000ff;\"></div>","response":null,"color":"#0000ff","task":"circle","trial_type":"html-keyboard-response","trial_index":210,"time_elapsed":199145,"internal_node_id":"0.0-2.0-0.208"},{"rt":null,"stimulus":"<div style=\"width:400px; height: 400px; border-radius: 400px; background-color: #0000ff;\"></div>","response":null,"color":"#0000ff","task":"circle","trial_type":"html-keyboard-response","trial_index":211,"time_elapsed":199859,"internal_node_id":"0.0-2.0-0.209"},{"rt":null,"stimulus":"<div style=\"width:400px; height: 400px; border-radius: 400px; background-color: #0000ff;\"></div>","response":null,"color":"#0000ff","task":"circle","trial_type":"html-keyboard-response","trial_index":212,"time_elapsed":200587,"internal_node_id":"0.0-2.0-0.210"},{"rt":null,"stimulus":"<div style=\"width:400px; height: 400px; border-radius: 400px; background-color: #0000ff;\"></div>","response":null,"color":"#0000ff","task":"circle","trial_type":"html-keyboard-response","trial_index":213,"time_elapsed":201301,"internal_node_id":"0.0-2.0-0.211"},{"rt":null,"stimulus":"<div style=\"width:400px; height: 400px; border-radius: 400px; background-color: #0000ff;\"></div>","response":null,"color":"#0000ff","task":"circle","trial_type":"html-keyboard-response","trial_index":214,"time_elapsed":202021,"internal_node_id":"0.0-2.0-0.212"},{"rt":null,"stimulus":"<div style=\"width:400px; height: 400px; border-radius: 400px; background-color: #ffaa00;\"></div>","response":null,"color":"#ffaa00","task":"circle","trial_type":"html-keyboard-response","trial_index":215,"time_elapsed":202742,"internal_node_id":"0.0-2.0-0.213"},{"rt":null,"stimulus":"<div style=\"width:400px; height: 400px; border-radius: 400px; background-color: #0000ff;\"></div>","response":null,"color":"#0000ff","task":"circle","trial_type":"html-keyboard-response","trial_index":216,"time_elapsed":203450,"internal_node_id":"0.0-2.0-0.214"},{"rt":null,"stimulus":"<div style=\"width:400px; height: 400px; border-radius: 400px; background-color: #0000ff;\"></div>","response":null,"color":"#0000ff","task":"circle","trial_type":"html-keyboard-response","trial_index":217,"time_elapsed":204161,"internal_node_id":"0.0-2.0-0.215"},{"rt":null,"stimulus":"<div style=\"width:400px; height: 400px; border-radius: 400px; background-color: #0000ff;\"></div>","response":null,"color":"#0000ff","task":"circle","trial_type":"html-keyboard-response","trial_index":218,"time_elapsed":204879,"internal_node_id":"0.0-2.0-0.216"},{"rt":null,"stimulus":"<div style=\"width:400px; height: 400px; border-radius: 400px; background-color: #8000ff;\"></div>","response":null,"color":"#8000ff","task":"circle","trial_type":"html-keyboard-response","trial_index":219,"time_elapsed":205592,"internal_node_id":"0.0-2.0-0.217"},{"rt":null,"stimulus":"<div style=\"width:400px; height: 400px; border-radius: 400px; background-color: #0000ff;\"></div>","response":null,"color":"#0000ff","task":"circle","trial_type":"html-keyboard-response","trial_index":220,"time_elapsed":206310,"internal_node_id":"0.0-2.0-0.218"},{"rt":null,"stimulus":"<div style=\"width:400px; height: 400px; border-radius: 400px; background-color: #0000ff;\"></div>","response":null,"color":"#0000ff","task":"circle","trial_type":"html-keyboard-response","trial_index":221,"time_elapsed":207014,"internal_node_id":"0.0-2.0-0.219"},{"rt":null,"stimulus":"<div style=\"width:400px; height: 400px; border-radius: 400px; background-color: #0000ff;\"></div>","response":null,"color":"#0000ff","task":"circle","trial_type":"html-keyboard-response","trial_index":222,"time_elapsed":207736,"internal_node_id":"0.0-2.0-0.220"},{"rt":null,"stimulus":"<div style=\"width:400px; height: 400px; border-radius: 400px; background-color: #0000ff;\"></div>","response":null,"color":"#0000ff","task":"circle","trial_type":"html-keyboard-response","trial_index":223,"time_elapsed":208453,"internal_node_id":"0.0-2.0-0.221"},{"rt":null,"stimulus":"<div style=\"width:400px; height: 400px; border-radius: 400px; background-color: #0000ff;\"></div>","response":null,"color":"#0000ff","task":"circle","trial_type":"html-keyboard-response","trial_index":224,"time_elapsed":209177,"internal_node_id":"0.0-2.0-0.222"},{"rt":null,"stimulus":"<div style=\"width:400px; height: 400px; border-radius: 400px; background-color: #0000ff;\"></div>","response":null,"color":"#0000ff","task":"circle","trial_type":"html-keyboard-response","trial_index":225,"time_elapsed":209893,"internal_node_id":"0.0-2.0-0.223"},{"rt":null,"stimulus":"<div style=\"width:400px; height: 400px; border-radius: 400px; background-color: #0000ff;\"></div>","response":null,"color":"#0000ff","task":"circle","trial_type":"html-keyboard-response","trial_index":226,"time_elapsed":210604,"internal_node_id":"0.0-2.0-0.224"},{"rt":null,"stimulus":"<div style=\"width:400px; height: 400px; border-radius: 400px; background-color: #0000ff;\"></div>","response":null,"color":"#0000ff","task":"circle","trial_type":"html-keyboard-response","trial_index":227,"time_elapsed":211319,"internal_node_id":"0.0-2.0-0.225"},{"rt":null,"stimulus":"<div style=\"width:400px; height: 400px; border-radius: 400px; background-color: #0000ff;\"></div>","response":null,"color":"#0000ff","task":"circle","trial_type":"html-keyboard-response","trial_index":228,"time_elapsed":212039,"internal_node_id":"0.0-2.0-0.226"},{"rt":null,"stimulus":"<div style=\"width:400px; height: 400px; border-radius: 400px; background-color: #ffaa00;\"></div>","response":null,"color":"#ffaa00","task":"circle","trial_type":"html-keyboard-response","trial_index":229,"time_elapsed":212750,"internal_node_id":"0.0-2.0-0.227"},{"rt":null,"stimulus":"<div style=\"width:400px; height: 400px; border-radius: 400px; background-color: #8000ff;\"></div>","response":null,"color":"#8000ff","task":"circle","trial_type":"html-keyboard-response","trial_index":230,"time_elapsed":213471,"internal_node_id":"0.0-2.0-0.228"},{"rt":null,"stimulus":"<div style=\"width:400px; height: 400px; border-radius: 400px; background-color: #0000ff;\"></div>","response":null,"color":"#0000ff","task":"circle","trial_type":"html-keyboard-response","trial_index":231,"time_elapsed":214186,"internal_node_id":"0.0-2.0-0.229"},{"rt":null,"stimulus":"<div style=\"width:400px; height: 400px; border-radius: 400px; background-color: #0000ff;\"></div>","response":null,"color":"#0000ff","task":"circle","trial_type":"html-keyboard-response","trial_index":232,"time_elapsed":214899,"internal_node_id":"0.0-2.0-0.230"},{"rt":null,"stimulus":"<div style=\"width:400px; height: 400px; border-radius: 400px; background-color: #0000ff;\"></div>","response":null,"color":"#0000ff","task":"circle","trial_type":"html-keyboard-response","trial_index":233,"time_elapsed":215611,"internal_node_id":"0.0-2.0-0.231"},{"rt":null,"stimulus":"<div style=\"width:400px; height: 400px; border-radius: 400px; background-color: #0000ff;\"></div>","response":null,"color":"#0000ff","task":"circle","trial_type":"html-keyboard-response","trial_index":234,"time_elapsed":216317,"internal_node_id":"0.0-2.0-0.232"},{"rt":null,"stimulus":"<div style=\"width:400px; height: 400px; border-radius: 400px; background-color: #0000ff;\"></div>","response":null,"color":"#0000ff","task":"circle","trial_type":"html-keyboard-response","trial_index":235,"time_elapsed":217021,"internal_node_id":"0.0-2.0-0.233"},{"rt":null,"stimulus":"<div style=\"width:400px; height: 400px; border-radius: 400px; background-color: #0000ff;\"></div>","response":null,"color":"#0000ff","task":"circle","trial_type":"html-keyboard-response","trial_index":236,"time_elapsed":217750,"internal_node_id":"0.0-2.0-0.234"},{"rt":null,"stimulus":"<div style=\"width:400px; height: 400px; border-radius: 400px; background-color: #0000ff;\"></div>","response":null,"color":"#0000ff","task":"circle","trial_type":"html-keyboard-response","trial_index":237,"time_elapsed":218468,"internal_node_id":"0.0-2.0-0.235"},{"rt":null,"stimulus":"<div style=\"width:400px; height: 400px; border-radius: 400px; background-color: #0000ff;\"></div>","response":null,"color":"#0000ff","task":"circle","trial_type":"html-keyboard-response","trial_index":238,"time_elapsed":219175,"internal_node_id":"0.0-2.0-0.236"},{"rt":null,"stimulus":"<div style=\"width:400px; height: 400px; border-radius: 400px; background-color: #ffaa00;\"></div>","response":null,"color":"#ffaa00","task":"circle","trial_type":"html-keyboard-response","trial_index":239,"time_elapsed":219897,"internal_node_id":"0.0-2.0-0.237"},{"rt":null,"stimulus":"<div style=\"width:400px; height: 400px; border-radius: 400px; background-color: #8000ff;\"></div>","response":null,"color":"#8000ff","task":"circle","trial_type":"html-keyboard-response","trial_index":240,"time_elapsed":220611,"internal_node_id":"0.0-2.0-0.238"},{"rt":null,"stimulus":"<div style=\"width:400px; height: 400px; border-radius: 400px; background-color: #0000ff;\"></div>","response":null,"color":"#0000ff","task":"circle","trial_type":"html-keyboard-response","trial_index":241,"time_elapsed":221323,"internal_node_id":"0.0-2.0-0.239"},{"rt":null,"stimulus":"<div style=\"width:400px; height: 400px; border-radius: 400px; background-color: #0000ff;\"></div>","response":null,"color":"#0000ff","task":"circle","trial_type":"html-keyboard-response","trial_index":242,"time_elapsed":222036,"internal_node_id":"0.0-2.0-0.240"},{"rt":null,"stimulus":"<div style=\"width:400px; height: 400px; border-radius: 400px; background-color: #8000ff;\"></div>","response":null,"color":"#8000ff","task":"circle","trial_type":"html-keyboard-response","trial_index":243,"time_elapsed":222757,"internal_node_id":"0.0-2.0-0.241"},{"rt":null,"stimulus":"<div style=\"width:400px; height: 400px; border-radius: 400px; background-color: #0000ff;\"></div>","response":null,"color":"#0000ff","task":"circle","trial_type":"html-keyboard-response","trial_index":244,"time_elapsed":223470,"internal_node_id":"0.0-2.0-0.242"},{"rt":null,"stimulus":"<div style=\"width:400px; height: 400px; border-radius: 400px; background-color: #0000ff;\"></div>","response":null,"color":"#0000ff","task":"circle","trial_type":"html-keyboard-response","trial_index":245,"time_elapsed":224188,"internal_node_id":"0.0-2.0-0.243"},{"rt":null,"stimulus":"<div style=\"width:400px; height: 400px; border-radius: 400px; background-color: #0000ff;\"></div>","response":null,"color":"#0000ff","task":"circle","trial_type":"html-keyboard-response","trial_index":246,"time_elapsed":224913,"internal_node_id":"0.0-2.0-0.244"},{"rt":null,"stimulus":"<div style=\"width:400px; height: 400px; border-radius: 400px; background-color: #ffaa00;\"></div>","response":null,"color":"#ffaa00","task":"circle","trial_type":"html-keyboard-response","trial_index":247,"time_elapsed":225628,"internal_node_id":"0.0-2.0-0.245"},{"rt":null,"stimulus":"<div style=\"width:400px; height: 400px; border-radius: 400px; background-color: #0000ff;\"></div>","response":null,"color":"#0000ff","task":"circle","trial_type":"html-keyboard-response","trial_index":248,"time_elapsed":226333,"internal_node_id":"0.0-2.0-0.246"},{"rt":null,"stimulus":"<div style=\"width:400px; height: 400px; border-radius: 400px; background-color: #0000ff;\"></div>","response":null,"color":"#0000ff","task":"circle","trial_type":"html-keyboard-response","trial_index":249,"time_elapsed":227045,"internal_node_id":"0.0-2.0-0.247"},{"rt":null,"stimulus":"<div style=\"width:400px; height: 400px; border-radius: 400px; background-color: #0000ff;\"></div>","response":null,"color":"#0000ff","task":"circle","trial_type":"html-keyboard-response","trial_index":250,"time_elapsed":227762,"internal_node_id":"0.0-2.0-0.248"},{"rt":null,"stimulus":"<div style=\"width:400px; height: 400px; border-radius: 400px; background-color: #0000ff;\"></div>","response":null,"color":"#0000ff","task":"circle","trial_type":"html-keyboard-response","trial_index":251,"time_elapsed":228474,"internal_node_id":"0.0-2.0-0.249"},{"rt":5324,"response":{"Q0":"49"},"task":"count","trial_type":"survey-text","trial_index":252,"time_elapsed":234152,"internal_node_id":"0.0-3.0"},{"rt":5221,"stimulus":"<p>When you are ready for the next round, press the spacebar.</p>","response":" ","trial_type":"html-keyboard-response","trial_index":253,"time_elapsed":240374,"internal_node_id":"0.0-4.0"},{"rt":null,"stimulus":"<div style=\"width:400px; height: 400px; border-radius: 400px; background-color: #0000ff;\"></div>","response":null,"color":"#0000ff","task":"circle","trial_type":"html-keyboard-response","trial_index":254,"time_elapsed":240735,"internal_node_id":"0.0-5.0-0.0"},{"rt":null,"stimulus":"<div style=\"width:400px; height: 400px; border-radius: 400px; background-color: #0000ff;\"></div>","response":null,"color":"#0000ff","task":"circle","trial_type":"html-keyboard-response","trial_index":255,"time_elapsed":241442,"internal_node_id":"0.0-5.0-0.1"},{"rt":null,"stimulus":"<div style=\"width:400px; height: 400px; border-radius: 400px; background-color: #0000ff;\"></div>","response":null,"color":"#0000ff","task":"circle","trial_type":"html-keyboard-response","trial_index":256,"time_elapsed":242161,"internal_node_id":"0.0-5.0-0.2"},{"rt":null,"stimulus":"<div style=\"width:400px; height: 400px; border-radius: 400px; background-color: #0000ff;\"></div>","response":null,"color":"#0000ff","task":"circle","trial_type":"html-keyboard-response","trial_index":257,"time_elapsed":242887,"internal_node_id":"0.0-5.0-0.3"},{"rt":null,"stimulus":"<div style=\"width:400px; height: 400px; border-radius: 400px; background-color: #0000ff;\"></div>","response":null,"color":"#0000ff","task":"circle","trial_type":"html-keyboard-response","trial_index":258,"time_elapsed":243609,"internal_node_id":"0.0-5.0-0.4"},{"rt":null,"stimulus":"<div style=\"width:400px; height: 400px; border-radius: 400px; background-color: #8000ff;\"></div>","response":null,"color":"#8000ff","task":"circle","trial_type":"html-keyboard-response","trial_index":259,"time_elapsed":244325,"internal_node_id":"0.0-5.0-0.5"},{"rt":null,"stimulus":"<div style=\"width:400px; height: 400px; border-radius: 400px; background-color: #0000ff;\"></div>","response":null,"color":"#0000ff","task":"circle","trial_type":"html-keyboard-response","trial_index":260,"time_elapsed":245044,"internal_node_id":"0.0-5.0-0.6"},{"rt":null,"stimulus":"<div style=\"width:400px; height: 400px; border-radius: 400px; background-color: #0000ff;\"></div>","response":null,"color":"#0000ff","task":"circle","trial_type":"html-keyboard-response","trial_index":261,"time_elapsed":245753,"internal_node_id":"0.0-5.0-0.7"},{"rt":null,"stimulus":"<div style=\"width:400px; height: 400px; border-radius: 400px; background-color: #0000ff;\"></div>","response":null,"color":"#0000ff","task":"circle","trial_type":"html-keyboard-response","trial_index":262,"time_elapsed":246476,"internal_node_id":"0.0-5.0-0.8"},{"rt":null,"stimulus":"<div style=\"width:400px; height: 400px; border-radius: 400px; background-color: #ffaa00;\"></div>","response":null,"color":"#ffaa00","task":"circle","trial_type":"html-keyboard-response","trial_index":263,"time_elapsed":247202,"internal_node_id":"0.0-5.0-0.9"},{"rt":null,"stimulus":"<div style=\"width:400px; height: 400px; border-radius: 400px; background-color: #0000ff;\"></div>","response":null,"color":"#0000ff","task":"circle","trial_type":"html-keyboard-response","trial_index":264,"time_elapsed":247907,"internal_node_id":"0.0-5.0-0.10"},{"rt":null,"stimulus":"<div style=\"width:400px; height: 400px; border-radius: 400px; background-color: #0000ff;\"></div>","response":null,"color":"#0000ff","task":"circle","trial_type":"html-keyboard-response","trial_index":265,"time_elapsed":248635,"internal_node_id":"0.0-5.0-0.11"},{"rt":null,"stimulus":"<div style=\"width:400px; height: 400px; border-radius: 400px; background-color: #0000ff;\"></div>","response":null,"color":"#0000ff","task":"circle","trial_type":"html-keyboard-response","trial_index":266,"time_elapsed":249345,"internal_node_id":"0.0-5.0-0.12"},{"rt":null,"stimulus":"<div style=\"width:400px; height: 400px; border-radius: 400px; background-color: #0000ff;\"></div>","response":null,"color":"#0000ff","task":"circle","trial_type":"html-keyboard-response","trial_index":267,"time_elapsed":250067,"internal_node_id":"0.0-5.0-0.13"},{"rt":null,"stimulus":"<div style=\"width:400px; height: 400px; border-radius: 400px; background-color: #0000ff;\"></div>","response":null,"color":"#0000ff","task":"circle","trial_type":"html-keyboard-response","trial_index":268,"time_elapsed":250795,"internal_node_id":"0.0-5.0-0.14"},{"rt":null,"stimulus":"<div style=\"width:400px; height: 400px; border-radius: 400px; background-color: #0000ff;\"></div>","response":null,"color":"#0000ff","task":"circle","trial_type":"html-keyboard-response","trial_index":269,"time_elapsed":251508,"internal_node_id":"0.0-5.0-0.15"},{"rt":null,"stimulus":"<div style=\"width:400px; height: 400px; border-radius: 400px; background-color: #ffaa00;\"></div>","response":null,"color":"#ffaa00","task":"circle","trial_type":"html-keyboard-response","trial_index":270,"time_elapsed":252237,"internal_node_id":"0.0-5.0-0.16"},{"rt":null,"stimulus":"<div style=\"width:400px; height: 400px; border-radius: 400px; background-color: #8000ff;\"></div>","response":null,"color":"#8000ff","task":"circle","trial_type":"html-keyboard-response","trial_index":271,"time_elapsed":252961,"internal_node_id":"0.0-5.0-0.17"},{"rt":null,"stimulus":"<div style=\"width:400px; height: 400px; border-radius: 400px; background-color: #0000ff;\"></div>","response":null,"color":"#0000ff","task":"circle","trial_type":"html-keyboard-response","trial_index":272,"time_elapsed":253687,"internal_node_id":"0.0-5.0-0.18"},{"rt":null,"stimulus":"<div style=\"width:400px; height: 400px; border-radius: 400px; background-color: #0000ff;\"></div>","response":null,"color":"#0000ff","task":"circle","trial_type":"html-keyboard-response","trial_index":273,"time_elapsed":254408,"internal_node_id":"0.0-5.0-0.19"},{"rt":null,"stimulus":"<div style=\"width:400px; height: 400px; border-radius: 400px; background-color: #0000ff;\"></div>","response":null,"color":"#0000ff","task":"circle","trial_type":"html-keyboard-response","trial_index":274,"time_elapsed":255125,"internal_node_id":"0.0-5.0-0.20"},{"rt":null,"stimulus":"<div style=\"width:400px; height: 400px; border-radius: 400px; background-color: #8000ff;\"></div>","response":null,"color":"#8000ff","task":"circle","trial_type":"html-keyboard-response","trial_index":275,"time_elapsed":255836,"internal_node_id":"0.0-5.0-0.21"},{"rt":null,"stimulus":"<div style=\"width:400px; height: 400px; border-radius: 400px; background-color: #0000ff;\"></div>","response":null,"color":"#0000ff","task":"circle","trial_type":"html-keyboard-response","trial_index":276,"time_elapsed":256547,"internal_node_id":"0.0-5.0-0.22"},{"rt":null,"stimulus":"<div style=\"width:400px; height: 400px; border-radius: 400px; background-color: #0000ff;\"></div>","response":null,"color":"#0000ff","task":"circle","trial_type":"html-keyboard-response","trial_index":277,"time_elapsed":257257,"internal_node_id":"0.0-5.0-0.23"},{"rt":null,"stimulus":"<div style=\"width:400px; height: 400px; border-radius: 400px; background-color: #0000ff;\"></div>","response":null,"color":"#0000ff","task":"circle","trial_type":"html-keyboard-response","trial_index":278,"time_elapsed":257973,"internal_node_id":"0.0-5.0-0.24"},{"rt":null,"stimulus":"<div style=\"width:400px; height: 400px; border-radius: 400px; background-color: #ffaa00;\"></div>","response":null,"color":"#ffaa00","task":"circle","trial_type":"html-keyboard-response","trial_index":279,"time_elapsed":258689,"internal_node_id":"0.0-5.0-0.25"},{"rt":null,"stimulus":"<div style=\"width:400px; height: 400px; border-radius: 400px; background-color: #0000ff;\"></div>","response":null,"color":"#0000ff","task":"circle","trial_type":"html-keyboard-response","trial_index":280,"time_elapsed":259399,"internal_node_id":"0.0-5.0-0.26"},{"rt":null,"stimulus":"<div style=\"width:400px; height: 400px; border-radius: 400px; background-color: #0000ff;\"></div>","response":null,"color":"#0000ff","task":"circle","trial_type":"html-keyboard-response","trial_index":281,"time_elapsed":260131,"internal_node_id":"0.0-5.0-0.27"},{"rt":null,"stimulus":"<div style=\"width:400px; height: 400px; border-radius: 400px; background-color: #0000ff;\"></div>","response":null,"color":"#0000ff","task":"circle","trial_type":"html-keyboard-response","trial_index":282,"time_elapsed":260848,"internal_node_id":"0.0-5.0-0.28"},{"rt":null,"stimulus":"<div style=\"width:400px; height: 400px; border-radius: 400px; background-color: #0000ff;\"></div>","response":null,"color":"#0000ff","task":"circle","trial_type":"html-keyboard-response","trial_index":283,"time_elapsed":261556,"internal_node_id":"0.0-5.0-0.29"},{"rt":null,"stimulus":"<div style=\"width:400px; height: 400px; border-radius: 400px; background-color: #0000ff;\"></div>","response":null,"color":"#0000ff","task":"circle","trial_type":"html-keyboard-response","trial_index":284,"time_elapsed":262276,"internal_node_id":"0.0-5.0-0.30"},{"rt":null,"stimulus":"<div style=\"width:400px; height: 400px; border-radius: 400px; background-color: #0000ff;\"></div>","response":null,"color":"#0000ff","task":"circle","trial_type":"html-keyboard-response","trial_index":285,"time_elapsed":262993,"internal_node_id":"0.0-5.0-0.31"},{"rt":null,"stimulus":"<div style=\"width:400px; height: 400px; border-radius: 400px; background-color: #0000ff;\"></div>","response":null,"color":"#0000ff","task":"circle","trial_type":"html-keyboard-response","trial_index":286,"time_elapsed":263710,"internal_node_id":"0.0-5.0-0.32"},{"rt":null,"stimulus":"<div style=\"width:400px; height: 400px; border-radius: 400px; background-color: #0000ff;\"></div>","response":null,"color":"#0000ff","task":"circle","trial_type":"html-keyboard-response","trial_index":287,"time_elapsed":264428,"internal_node_id":"0.0-5.0-0.33"},{"rt":null,"stimulus":"<div style=\"width:400px; height: 400px; border-radius: 400px; background-color: #8000ff;\"></div>","response":null,"color":"#8000ff","task":"circle","trial_type":"html-keyboard-response","trial_index":288,"time_elapsed":265153,"internal_node_id":"0.0-5.0-0.34"},{"rt":null,"stimulus":"<div style=\"width:400px; height: 400px; border-radius: 400px; background-color: #ffaa00;\"></div>","response":null,"color":"#ffaa00","task":"circle","trial_type":"html-keyboard-response","trial_index":289,"time_elapsed":265872,"internal_node_id":"0.0-5.0-0.35"},{"rt":null,"stimulus":"<div style=\"width:400px; height: 400px; border-radius: 400px; background-color: #0000ff;\"></div>","response":null,"color":"#0000ff","task":"circle","trial_type":"html-keyboard-response","trial_index":290,"time_elapsed":266593,"internal_node_id":"0.0-5.0-0.36"},{"rt":null,"stimulus":"<div style=\"width:400px; height: 400px; border-radius: 400px; background-color: #0000ff;\"></div>","response":null,"color":"#0000ff","task":"circle","trial_type":"html-keyboard-response","trial_index":291,"time_elapsed":267309,"internal_node_id":"0.0-5.0-0.37"},{"rt":null,"stimulus":"<div style=\"width:400px; height: 400px; border-radius: 400px; background-color: #0000ff;\"></div>","response":null,"color":"#0000ff","task":"circle","trial_type":"html-keyboard-response","trial_index":292,"time_elapsed":268015,"internal_node_id":"0.0-5.0-0.38"},{"rt":null,"stimulus":"<div style=\"width:400px; height: 400px; border-radius: 400px; background-color: #0000ff;\"></div>","response":null,"color":"#0000ff","task":"circle","trial_type":"html-keyboard-response","trial_index":293,"time_elapsed":268725,"internal_node_id":"0.0-5.0-0.39"},{"rt":null,"stimulus":"<div style=\"width:400px; height: 400px; border-radius: 400px; background-color: #0000ff;\"></div>","response":null,"color":"#0000ff","task":"circle","trial_type":"html-keyboard-response","trial_index":294,"time_elapsed":269450,"internal_node_id":"0.0-5.0-0.40"},{"rt":null,"stimulus":"<div style=\"width:400px; height: 400px; border-radius: 400px; background-color: #8000ff;\"></div>","response":null,"color":"#8000ff","task":"circle","trial_type":"html-keyboard-response","trial_index":295,"time_elapsed":270170,"internal_node_id":"0.0-5.0-0.41"},{"rt":null,"stimulus":"<div style=\"width:400px; height: 400px; border-radius: 400px; background-color: #0000ff;\"></div>","response":null,"color":"#0000ff","task":"circle","trial_type":"html-keyboard-response","trial_index":296,"time_elapsed":270881,"internal_node_id":"0.0-5.0-0.42"},{"rt":null,"stimulus":"<div style=\"width:400px; height: 400px; border-radius: 400px; background-color: #ffaa00;\"></div>","response":null,"color":"#ffaa00","task":"circle","trial_type":"html-keyboard-response","trial_index":297,"time_elapsed":271593,"internal_node_id":"0.0-5.0-0.43"},{"rt":null,"stimulus":"<div style=\"width:400px; height: 400px; border-radius: 400px; background-color: #0000ff;\"></div>","response":null,"color":"#0000ff","task":"circle","trial_type":"html-keyboard-response","trial_index":298,"time_elapsed":272309,"internal_node_id":"0.0-5.0-0.44"},{"rt":null,"stimulus":"<div style=\"width:400px; height: 400px; border-radius: 400px; background-color: #0000ff;\"></div>","response":null,"color":"#0000ff","task":"circle","trial_type":"html-keyboard-response","trial_index":299,"time_elapsed":273034,"internal_node_id":"0.0-5.0-0.45"},{"rt":null,"stimulus":"<div style=\"width:400px; height: 400px; border-radius: 400px; background-color: #0000ff;\"></div>","response":null,"color":"#0000ff","task":"circle","trial_type":"html-keyboard-response","trial_index":300,"time_elapsed":273745,"internal_node_id":"0.0-5.0-0.46"},{"rt":null,"stimulus":"<div style=\"width:400px; height: 400px; border-radius: 400px; background-color: #0000ff;\"></div>","response":null,"color":"#0000ff","task":"circle","trial_type":"html-keyboard-response","trial_index":301,"time_elapsed":274464,"internal_node_id":"0.0-5.0-0.47"},{"rt":null,"stimulus":"<div style=\"width:400px; height: 400px; border-radius: 400px; background-color: #0000ff;\"></div>","response":null,"color":"#0000ff","task":"circle","trial_type":"html-keyboard-response","trial_index":302,"time_elapsed":275173,"internal_node_id":"0.0-5.0-0.48"},{"rt":null,"stimulus":"<div style=\"width:400px; height: 400px; border-radius: 400px; background-color: #0000ff;\"></div>","response":null,"color":"#0000ff","task":"circle","trial_type":"html-keyboard-response","trial_index":303,"time_elapsed":275891,"internal_node_id":"0.0-5.0-0.49"},{"rt":null,"stimulus":"<div style=\"width:400px; height: 400px; border-radius: 400px; background-color: #0000ff;\"></div>","response":null,"color":"#0000ff","task":"circle","trial_type":"html-keyboard-response","trial_index":304,"time_elapsed":276606,"internal_node_id":"0.0-5.0-0.50"},{"rt":null,"stimulus":"<div style=\"width:400px; height: 400px; border-radius: 400px; background-color: #0000ff;\"></div>","response":null,"color":"#0000ff","task":"circle","trial_type":"html-keyboard-response","trial_index":305,"time_elapsed":277324,"internal_node_id":"0.0-5.0-0.51"},{"rt":null,"stimulus":"<div style=\"width:400px; height: 400px; border-radius: 400px; background-color: #0000ff;\"></div>","response":null,"color":"#0000ff","task":"circle","trial_type":"html-keyboard-response","trial_index":306,"time_elapsed":278051,"internal_node_id":"0.0-5.0-0.52"},{"rt":null,"stimulus":"<div style=\"width:400px; height: 400px; border-radius: 400px; background-color: #0000ff;\"></div>","response":null,"color":"#0000ff","task":"circle","trial_type":"html-keyboard-response","trial_index":307,"time_elapsed":278756,"internal_node_id":"0.0-5.0-0.53"},{"rt":null,"stimulus":"<div style=\"width:400px; height: 400px; border-radius: 400px; background-color: #0000ff;\"></div>","response":null,"color":"#0000ff","task":"circle","trial_type":"html-keyboard-response","trial_index":308,"time_elapsed":279475,"internal_node_id":"0.0-5.0-0.54"},{"rt":null,"stimulus":"<div style=\"width:400px; height: 400px; border-radius: 400px; background-color: #0000ff;\"></div>","response":null,"color":"#0000ff","task":"circle","trial_type":"html-keyboard-response","trial_index":309,"time_elapsed":280192,"internal_node_id":"0.0-5.0-0.55"},{"rt":null,"stimulus":"<div style=\"width:400px; height: 400px; border-radius: 400px; background-color: #8000ff;\"></div>","response":null,"color":"#8000ff","task":"circle","trial_type":"html-keyboard-response","trial_index":310,"time_elapsed":280916,"internal_node_id":"0.0-5.0-0.56"},{"rt":null,"stimulus":"<div style=\"width:400px; height: 400px; border-radius: 400px; background-color: #ffaa00;\"></div>","response":null,"color":"#ffaa00","task":"circle","trial_type":"html-keyboard-response","trial_index":311,"time_elapsed":281638,"internal_node_id":"0.0-5.0-0.57"},{"rt":null,"stimulus":"<div style=\"width:400px; height: 400px; border-radius: 400px; background-color: #0000ff;\"></div>","response":null,"color":"#0000ff","task":"circle","trial_type":"html-keyboard-response","trial_index":312,"time_elapsed":282354,"internal_node_id":"0.0-5.0-0.58"},{"rt":null,"stimulus":"<div style=\"width:400px; height: 400px; border-radius: 400px; background-color: #0000ff;\"></div>","response":null,"color":"#0000ff","task":"circle","trial_type":"html-keyboard-response","trial_index":313,"time_elapsed":283065,"internal_node_id":"0.0-5.0-0.59"},{"rt":null,"stimulus":"<div style=\"width:400px; height: 400px; border-radius: 400px; background-color: #ffaa00;\"></div>","response":null,"color":"#ffaa00","task":"circle","trial_type":"html-keyboard-response","trial_index":314,"time_elapsed":283776,"internal_node_id":"0.0-5.0-0.60"},{"rt":null,"stimulus":"<div style=\"width:400px; height: 400px; border-radius: 400px; background-color: #0000ff;\"></div>","response":null,"color":"#0000ff","task":"circle","trial_type":"html-keyboard-response","trial_index":315,"time_elapsed":284489,"internal_node_id":"0.0-5.0-0.61"},{"rt":null,"stimulus":"<div style=\"width:400px; height: 400px; border-radius: 400px; background-color: #0000ff;\"></div>","response":null,"color":"#0000ff","task":"circle","trial_type":"html-keyboard-response","trial_index":316,"time_elapsed":285208,"internal_node_id":"0.0-5.0-0.62"},{"rt":null,"stimulus":"<div style=\"width:400px; height: 400px; border-radius: 400px; background-color: #8000ff;\"></div>","response":null,"color":"#8000ff","task":"circle","trial_type":"html-keyboard-response","trial_index":317,"time_elapsed":285922,"internal_node_id":"0.0-5.0-0.63"},{"rt":null,"stimulus":"<div style=\"width:400px; height: 400px; border-radius: 400px; background-color: #0000ff;\"></div>","response":null,"color":"#0000ff","task":"circle","trial_type":"html-keyboard-response","trial_index":318,"time_elapsed":286637,"internal_node_id":"0.0-5.0-0.64"},{"rt":null,"stimulus":"<div style=\"width:400px; height: 400px; border-radius: 400px; background-color: #0000ff;\"></div>","response":null,"color":"#0000ff","task":"circle","trial_type":"html-keyboard-response","trial_index":319,"time_elapsed":287361,"internal_node_id":"0.0-5.0-0.65"},{"rt":null,"stimulus":"<div style=\"width:400px; height: 400px; border-radius: 400px; background-color: #0000ff;\"></div>","response":null,"color":"#0000ff","task":"circle","trial_type":"html-keyboard-response","trial_index":320,"time_elapsed":288086,"internal_node_id":"0.0-5.0-0.66"},{"rt":null,"stimulus":"<div style=\"width:400px; height: 400px; border-radius: 400px; background-color: #0000ff;\"></div>","response":null,"color":"#0000ff","task":"circle","trial_type":"html-keyboard-response","trial_index":321,"time_elapsed":288808,"internal_node_id":"0.0-5.0-0.67"},{"rt":null,"stimulus":"<div style=\"width:400px; height: 400px; border-radius: 400px; background-color: #0000ff;\"></div>","response":null,"color":"#0000ff","task":"circle","trial_type":"html-keyboard-response","trial_index":322,"time_elapsed":289535,"internal_node_id":"0.0-5.0-0.68"},{"rt":null,"stimulus":"<div style=\"width:400px; height: 400px; border-radius: 400px; background-color: #0000ff;\"></div>","response":null,"color":"#0000ff","task":"circle","trial_type":"html-keyboard-response","trial_index":323,"time_elapsed":290255,"internal_node_id":"0.0-5.0-0.69"},{"rt":null,"stimulus":"<div style=\"width:400px; height: 400px; border-radius: 400px; background-color: #0000ff;\"></div>","response":null,"color":"#0000ff","task":"circle","trial_type":"html-keyboard-response","trial_index":324,"time_elapsed":290964,"internal_node_id":"0.0-5.0-0.70"},{"rt":null,"stimulus":"<div style=\"width:400px; height: 400px; border-radius: 400px; background-color: #0000ff;\"></div>","response":null,"color":"#0000ff","task":"circle","trial_type":"html-keyboard-response","trial_index":325,"time_elapsed":291679,"internal_node_id":"0.0-5.0-0.71"},{"rt":null,"stimulus":"<div style=\"width:400px; height: 400px; border-radius: 400px; background-color: #0000ff;\"></div>","response":null,"color":"#0000ff","task":"circle","trial_type":"html-keyboard-response","trial_index":326,"time_elapsed":292390,"internal_node_id":"0.0-5.0-0.72"},{"rt":null,"stimulus":"<div style=\"width:400px; height: 400px; border-radius: 400px; background-color: #0000ff;\"></div>","response":null,"color":"#0000ff","task":"circle","trial_type":"html-keyboard-response","trial_index":327,"time_elapsed":293107,"internal_node_id":"0.0-5.0-0.73"},{"rt":null,"stimulus":"<div style=\"width:400px; height: 400px; border-radius: 400px; background-color: #8000ff;\"></div>","response":null,"color":"#8000ff","task":"circle","trial_type":"html-keyboard-response","trial_index":328,"time_elapsed":293824,"internal_node_id":"0.0-5.0-0.74"},{"rt":null,"stimulus":"<div style=\"width:400px; height: 400px; border-radius: 400px; background-color: #ffaa00;\"></div>","response":null,"color":"#ffaa00","task":"circle","trial_type":"html-keyboard-response","trial_index":329,"time_elapsed":294540,"internal_node_id":"0.0-5.0-0.75"},{"rt":null,"stimulus":"<div style=\"width:400px; height: 400px; border-radius: 400px; background-color: #0000ff;\"></div>","response":null,"color":"#0000ff","task":"circle","trial_type":"html-keyboard-response","trial_index":330,"time_elapsed":295243,"internal_node_id":"0.0-5.0-0.76"},{"rt":null,"stimulus":"<div style=\"width:400px; height: 400px; border-radius: 400px; background-color: #0000ff;\"></div>","response":null,"color":"#0000ff","task":"circle","trial_type":"html-keyboard-response","trial_index":331,"time_elapsed":295965,"internal_node_id":"0.0-5.0-0.77"},{"rt":null,"stimulus":"<div style=\"width:400px; height: 400px; border-radius: 400px; background-color: #0000ff;\"></div>","response":null,"color":"#0000ff","task":"circle","trial_type":"html-keyboard-response","trial_index":332,"time_elapsed":296676,"internal_node_id":"0.0-5.0-0.78"},{"rt":null,"stimulus":"<div style=\"width:400px; height: 400px; border-radius: 400px; background-color: #0000ff;\"></div>","response":null,"color":"#0000ff","task":"circle","trial_type":"html-keyboard-response","trial_index":333,"time_elapsed":297394,"internal_node_id":"0.0-5.0-0.79"},{"rt":null,"stimulus":"<div style=\"width:400px; height: 400px; border-radius: 400px; background-color: #0000ff;\"></div>","response":null,"color":"#0000ff","task":"circle","trial_type":"html-keyboard-response","trial_index":334,"time_elapsed":298111,"internal_node_id":"0.0-5.0-0.80"},{"rt":null,"stimulus":"<div style=\"width:400px; height: 400px; border-radius: 400px; background-color: #0000ff;\"></div>","response":null,"color":"#0000ff","task":"circle","trial_type":"html-keyboard-response","trial_index":335,"time_elapsed":298827,"internal_node_id":"0.0-5.0-0.81"},{"rt":null,"stimulus":"<div style=\"width:400px; height: 400px; border-radius: 400px; background-color: #0000ff;\"></div>","response":null,"color":"#0000ff","task":"circle","trial_type":"html-keyboard-response","trial_index":336,"time_elapsed":299537,"internal_node_id":"0.0-5.0-0.82"},{"rt":null,"stimulus":"<div style=\"width:400px; height: 400px; border-radius: 400px; background-color: #0000ff;\"></div>","response":null,"color":"#0000ff","task":"circle","trial_type":"html-keyboard-response","trial_index":337,"time_elapsed":300260,"internal_node_id":"0.0-5.0-0.83"},{"rt":null,"stimulus":"<div style=\"width:400px; height: 400px; border-radius: 400px; background-color: #0000ff;\"></div>","response":null,"color":"#0000ff","task":"circle","trial_type":"html-keyboard-response","trial_index":338,"time_elapsed":300974,"internal_node_id":"0.0-5.0-0.84"},{"rt":null,"stimulus":"<div style=\"width:400px; height: 400px; border-radius: 400px; background-color: #ffaa00;\"></div>","response":null,"color":"#ffaa00","task":"circle","trial_type":"html-keyboard-response","trial_index":339,"time_elapsed":301692,"internal_node_id":"0.0-5.0-0.85"},{"rt":null,"stimulus":"<div style=\"width:400px; height: 400px; border-radius: 400px; background-color: #0000ff;\"></div>","response":null,"color":"#0000ff","task":"circle","trial_type":"html-keyboard-response","trial_index":340,"time_elapsed":302411,"internal_node_id":"0.0-5.0-0.86"},{"rt":null,"stimulus":"<div style=\"width:400px; height: 400px; border-radius: 400px; background-color: #0000ff;\"></div>","response":null,"color":"#0000ff","task":"circle","trial_type":"html-keyboard-response","trial_index":341,"time_elapsed":303119,"internal_node_id":"0.0-5.0-0.87"},{"rt":null,"stimulus":"<div style=\"width:400px; height: 400px; border-radius: 400px; background-color: #8000ff;\"></div>","response":null,"color":"#8000ff","task":"circle","trial_type":"html-keyboard-response","trial_index":342,"time_elapsed":303841,"internal_node_id":"0.0-5.0-0.88"},{"rt":null,"stimulus":"<div style=\"width:400px; height: 400px; border-radius: 400px; background-color: #0000ff;\"></div>","response":null,"color":"#0000ff","task":"circle","trial_type":"html-keyboard-response","trial_index":343,"time_elapsed":304569,"internal_node_id":"0.0-5.0-0.89"},{"rt":null,"stimulus":"<div style=\"width:400px; height: 400px; border-radius: 400px; background-color: #0000ff;\"></div>","response":null,"color":"#0000ff","task":"circle","trial_type":"html-keyboard-response","trial_index":344,"time_elapsed":305279,"internal_node_id":"0.0-5.0-0.90"},{"rt":null,"stimulus":"<div style=\"width:400px; height: 400px; border-radius: 400px; background-color: #0000ff;\"></div>","response":null,"color":"#0000ff","task":"circle","trial_type":"html-keyboard-response","trial_index":345,"time_elapsed":305998,"internal_node_id":"0.0-5.0-0.91"},{"rt":null,"stimulus":"<div style=\"width:400px; height: 400px; border-radius: 400px; background-color: #0000ff;\"></div>","response":null,"color":"#0000ff","task":"circle","trial_type":"html-keyboard-response","trial_index":346,"time_elapsed":306721,"internal_node_id":"0.0-5.0-0.92"},{"rt":null,"stimulus":"<div style=\"width:400px; height: 400px; border-radius: 400px; background-color: #0000ff;\"></div>","response":null,"color":"#0000ff","task":"circle","trial_type":"html-keyboard-response","trial_index":347,"time_elapsed":307439,"internal_node_id":"0.0-5.0-0.93"},{"rt":null,"stimulus":"<div style=\"width:400px; height: 400px; border-radius: 400px; background-color: #0000ff;\"></div>","response":null,"color":"#0000ff","task":"circle","trial_type":"html-keyboard-response","trial_index":348,"time_elapsed":308142,"internal_node_id":"0.0-5.0-0.94"},{"rt":null,"stimulus":"<div style=\"width:400px; height: 400px; border-radius: 400px; backgrou