[{"rt":369556,"response":{"Q0":"04"},"task":"subject_id","trial_type":"survey-text","trial_index":0,"time_elapsed":369580,"internal_node_id":"0.0-0.0"},{"rt":40507,"stimulus":"<div style=\"width:600px;\">\n        <p>A series of colored circles will appear. Most of the circles will be blue, but some will be orange and some will be purple.</p>\n        <p>Your task is to count the total number of orange and purple circles.</p>\n        <p>You do not need to keep track of the number of orange and purple separately. For example, if you have seen 3 purple circles and 1 orange circle you only need to report the number 4.</p>\n        <p>You'll complete 3 rounds, and each round will take about 3 minutes.</p>\n        <p>When you are ready for the first round, press the spacebar.</p>\n        </div>","response":" ","trial_type":"html-keyboard-response","trial_index":1,"time_elapsed":410088,"internal_node_id":"0.0-1.0"},{"rt":null,"stimulus":"<div style=\"width:400px; height: 400px; border-radius: 400px; background-color: #0000ff;\"></div>","response":null,"color":"#0000ff","task":"circle","trial_type":"html-keyboard-response","trial_index":2,"time_elapsed":411457,"internal_node_id":"0.0-2.0-0.0"},{"rt":null,"stimulus":"<div style=\"width:400px; height: 400px; border-radius: 400px; background-color: #0000ff;\"></div>","response":null,"color":"#0000ff","task":"circle","trial_type":"html-keyboard-response","trial_index":3,"time_elapsed":412180,"internal_node_id":"0.0-2.0-0.1"},{"rt":null,"stimulus":"<div style=\"width:400px; height: 400px; border-radius: 400px; background-color: #0000ff;\"></div>","response":null,"color":"#0000ff","task":"circle","trial_type":"html-keyboard-response","trial_index":4,"time_elapsed":412905,"internal_node_id":"0.0-2.0-0.2"},{"rt":null,"stimulus":"<div style=\"width:400px; height: 400px; border-radius: 400px; background-color: #8000ff;\"></div>","response":null,"color":"#8000ff","task":"circle","trial_type":"html-keyboard-response","trial_index":5,"time_elapsed":413630,"internal_node_id":"0.0-2.0-0.3"},{"rt":null,"stimulus":"<div style=\"width:400px; height: 400px; border-radius: 400px; background-color: #ffaa00;\"></div>","response":null,"color":"#ffaa00","task":"circle","trial_type":"html-keyboard-response","trial_index":6,"time_elapsed":414353,"internal_node_id":"0.0-2.0-0.4"},{"rt":null,"stimulus":"<div style=\"width:400px; height: 400px; border-radius: 400px; background-color: #0000ff;\"></div>","response":null,"color":"#0000ff","task":"circle","trial_type":"html-keyboard-response","trial_index":7,"time_elapsed":415080,"internal_node_id":"0.0-2.0-0.5"},{"rt":null,"stimulus":"<div style=\"width:400px; height: 400px; border-radius: 400px; background-color: #0000ff;\"></div>","response":null,"color":"#0000ff","task":"circle","trial_type":"html-keyboard-response","trial_index":8,"time_elapsed":415807,"internal_node_id":"0.0-2.0-0.6"},{"rt":null,"stimulus":"<div style=\"width:400px; height: 400px; border-radius: 400px; background-color: #0000ff;\"></div>","response":null,"color":"#0000ff","task":"circle","trial_type":"html-keyboard-response","trial_index":9,"time_elapsed":416531,"internal_node_id":"0.0-2.0-0.7"},{"rt":null,"stimulus":"<div style=\"width:400px; height: 400px; border-radius: 400px; background-color: #0000ff;\"></div>","response":null,"color":"#0000ff","task":"circle","trial_type":"html-keyboard-response","trial_index":10,"time_elapsed":417257,"internal_node_id":"0.0-2.0-0.8"},{"rt":null,"stimulus":"<div style=\"width:400px; height: 400px; border-radius: 400px; background-color: #0000ff;\"></div>","response":null,"color":"#0000ff","task":"circle","trial_type":"html-keyboard-response","trial_index":11,"time_elapsed":417983,"internal_node_id":"0.0-2.0-0.9"},{"rt":null,"stimulus":"<div style=\"width:400px; height: 400px; border-radius: 400px; background-color: #0000ff;\"></div>","response":null,"color":"#0000ff","task":"circle","trial_type":"html-keyboard-response","trial_index":12,"time_elapsed":418711,"internal_node_id":"0.0-2.0-0.10"},{"rt":null,"stimulus":"<div style=\"width:400px; height: 400px; border-radius: 400px; background-color: #0000ff;\"></div>","response":null,"color":"#0000ff","task":"circle","trial_type":"html-keyboard-response","trial_index":13,"time_elapsed":419437,"internal_node_id":"0.0-2.0-0.11"},{"rt":null,"stimulus":"<div style=\"width:400px; height: 400px; border-radius: 400px; background-color: #0000ff;\"></div>","response":null,"color":"#0000ff","task":"circle","trial_type":"html-keyboard-response","trial_index":14,"time_elapsed":420163,"internal_node_id":"0.0-2.0-0.12"},{"rt":null,"stimulus":"<div style=\"width:400px; height: 400px; border-radius: 400px; background-color: #0000ff;\"></div>","response":null,"color":"#0000ff","task":"circle","trial_type":"html-keyboard-response","trial_index":15,"time_elapsed":420889,"internal_node_id":"0.0-2.0-0.13"},{"rt":null,"stimulus":"<div style=\"width:400px; height: 400px; border-radius: 400px; background-color: #0000ff;\"></div>","response":null,"color":"#0000ff","task":"circle","trial_type":"html-keyboard-response","trial_index":16,"time_elapsed":421619,"internal_node_id":"0.0-2.0-0.14"},{"rt":null,"stimulus":"<div style=\"width:400px; height: 400px; border-radius: 400px; background-color: #0000ff;\"></div>","response":null,"color":"#0000ff","task":"circle","trial_type":"html-keyboard-response","trial_index":17,"time_elapsed":422347,"internal_node_id":"0.0-2.0-0.15"},{"rt":null,"stimulus":"<div style=\"width:400px; height: 400px; border-radius: 400px; background-color: #0000ff;\"></div>","response":null,"color":"#0000ff","task":"circle","trial_type":"html-keyboard-response","trial_index":18,"time_elapsed":423071,"internal_node_id":"0.0-2.0-0.16"},{"rt":null,"stimulus":"<div style=\"width:400px; height: 400px; border-radius: 400px; background-color: #0000ff;\"></div>","response":null,"color":"#0000ff","task":"circle","trial_type":"html-keyboard-response","trial_index":19,"time_elapsed":423795,"internal_node_id":"0.0-2.0-0.17"},{"rt":null,"stimulus":"<div style=\"width:400px; height: 400px; border-radius: 400px; background-color: #ffaa00;\"></div>","response":null,"color":"#ffaa00","task":"circle","trial_type":"html-keyboard-response","trial_index":20,"time_elapsed":424520,"internal_node_id":"0.0-2.0-0.18"},{"rt":null,"stimulus":"<div style=\"width:400px; height: 400px; border-radius: 400px; background-color: #8000ff;\"></div>","response":null,"color":"#8000ff","task":"circle","trial_type":"html-keyboard-response","trial_index":21,"time_elapsed":425250,"internal_node_id":"0.0-2.0-0.19"},{"rt":null,"stimulus":"<div style=\"width:400px; height: 400px; border-radius: 400px; background-color: #0000ff;\"></div>","response":null,"color":"#0000ff","task":"circle","trial_type":"html-keyboard-response","trial_index":22,"time_elapsed":425977,"internal_node_id":"0.0-2.0-0.20"},{"rt":null,"stimulus":"<div style=\"width:400px; height: 400px; border-radius: 400px; background-color: #0000ff;\"></div>","response":null,"color":"#0000ff","task":"circle","trial_type":"html-keyboard-response","trial_index":23,"time_elapsed":426702,"internal_node_id":"0.0-2.0-0.21"},{"rt":null,"stimulus":"<div style=\"width:400px; height: 400px; border-radius: 400px; background-color: #0000ff;\"></div>","response":null,"color":"#0000ff","task":"circle","trial_type":"html-keyboard-response","trial_index":24,"time_elapsed":427429,"internal_node_id":"0.0-2.0-0.22"},{"rt":null,"stimulus":"<div style=\"width:400px; height: 400px; border-radius: 400px; background-color: #0000ff;\"></div>","response":null,"color":"#0000ff","task":"circle","trial_type":"html-keyboard-response","trial_index":25,"time_elapsed":428155,"internal_node_id":"0.0-2.0-0.23"},{"rt":null,"stimulus":"<div style=\"width:400px; height: 400px; border-radius: 400px; background-color: #0000ff;\"></div>","response":null,"color":"#0000ff","task":"circle","trial_type":"html-keyboard-response","trial_index":26,"time_elapsed":428878,"internal_node_id":"0.0-2.0-0.24"},{"rt":null,"stimulus":"<div style=\"width:400px; height: 400px; border-radius: 400px; background-color: #8000ff;\"></div>","response":null,"color":"#8000ff","task":"circle","trial_type":"html-keyboard-response","trial_index":27,"time_elapsed":429602,"internal_node_id":"0.0-2.0-0.25"},{"rt":null,"stimulus":"<div style=\"width:400px; height: 400px; border-radius: 400px; background-color: #0000ff;\"></div>","response":null,"color":"#0000ff","task":"circle","trial_type":"html-keyboard-response","trial_index":28,"time_elapsed":430327,"internal_node_id":"0.0-2.0-0.26"},{"rt":null,"stimulus":"<div style=\"width:400px; height: 400px; border-radius: 400px; background-color: #0000ff;\"></div>","response":null,"color":"#0000ff","task":"circle","trial_type":"html-keyboard-response","trial_index":29,"time_elapsed":431054,"internal_node_id":"0.0-2.0-0.27"},{"rt":null,"stimulus":"<div style=\"width:400px; height: 400px; border-radius: 400px; background-color: #ffaa00;\"></div>","response":null,"color":"#ffaa00","task":"circle","trial_type":"html-keyboard-response","trial_index":30,"time_elapsed":431781,"internal_node_id":"0.0-2.0-0.28"},{"rt":null,"stimulus":"<div style=\"width:400px; height: 400px; border-radius: 400px; background-color: #0000ff;\"></div>","response":null,"color":"#0000ff","task":"circle","trial_type":"html-keyboard-response","trial_index":31,"time_elapsed":432512,"internal_node_id":"0.0-2.0-0.29"},{"rt":null,"stimulus":"<div style=\"width:400px; height: 400px; border-radius: 400px; background-color: #8000ff;\"></div>","response":null,"color":"#8000ff","task":"circle","trial_type":"html-keyboard-response","trial_index":32,"time_elapsed":433242,"internal_node_id":"0.0-2.0-0.30"},{"rt":null,"stimulus":"<div style=\"width:400px; height: 400px; border-radius: 400px; background-color: #0000ff;\"></div>","response":null,"color":"#0000ff","task":"circle","trial_type":"html-keyboard-response","trial_index":33,"time_elapsed":433972,"internal_node_id":"0.0-2.0-0.31"},{"rt":null,"stimulus":"<div style=\"width:400px; height: 400px; border-radius: 400px; background-color: #0000ff;\"></div>","response":null,"color":"#0000ff","task":"circle","trial_type":"html-keyboard-response","trial_index":34,"time_elapsed":434700,"internal_node_id":"0.0-2.0-0.32"},{"rt":null,"stimulus":"<div style=\"width:400px; height: 400px; border-radius: 400px; background-color: #0000ff;\"></div>","response":null,"color":"#0000ff","task":"circle","trial_type":"html-keyboard-response","trial_index":35,"time_elapsed":435421,"internal_node_id":"0.0-2.0-0.33"},{"rt":null,"stimulus":"<div style=\"width:400px; height: 400px; border-radius: 400px; background-color: #0000ff;\"></div>","response":null,"color":"#0000ff","task":"circle","trial_type":"html-keyboard-response","trial_index":36,"time_elapsed":436145,"internal_node_id":"0.0-2.0-0.34"},{"rt":null,"stimulus":"<div style=\"width:400px; height: 400px; border-radius: 400px; background-color: #ffaa00;\"></div>","response":null,"color":"#ffaa00","task":"circle","trial_type":"html-keyboard-response","trial_index":37,"time_elapsed":436869,"internal_node_id":"0.0-2.0-0.35"},{"rt":null,"stimulus":"<div style=\"width:400px; height: 400px; border-radius: 400px; background-color: #0000ff;\"></div>","response":null,"color":"#0000ff","task":"circle","trial_type":"html-keyboard-response","trial_index":38,"time_elapsed":437595,"internal_node_id":"0.0-2.0-0.36"},{"rt":null,"stimulus":"<div style=\"width:400px; height: 400px; border-radius: 400px; background-color: #0000ff;\"></div>","response":null,"color":"#0000ff","task":"circle","trial_type":"html-keyboard-response","trial_index":39,"time_elapsed":438321,"internal_node_id":"0.0-2.0-0.37"},{"rt":null,"stimulus":"<div style=\"width:400px; height: 400px; border-radius: 400px; background-color: #0000ff;\"></div>","response":null,"color":"#0000ff","task":"circle","trial_type":"html-keyboard-response","trial_index":40,"time_elapsed":439048,"internal_node_id":"0.0-2.0-0.38"},{"rt":null,"stimulus":"<div style=\"width:400px; height: 400px; border-radius: 400px; background-color: #0000ff;\"></div>","response":null,"color":"#0000ff","task":"circle","trial_type":"html-keyboard-response","trial_index":41,"time_elapsed":439771,"internal_node_id":"0.0-2.0-0.39"},{"rt":null,"stimulus":"<div style=\"width:400px; height: 400px; border-radius: 400px; background-color: #0000ff;\"></div>","response":null,"color":"#0000ff","task":"circle","trial_type":"html-keyboard-response","trial_index":42,"time_elapsed":440497,"internal_node_id":"0.0-2.0-0.40"},{"rt":null,"stimulus":"<div style=\"width:400px; height: 400px; border-radius: 400px; background-color: #8000ff;\"></div>","response":null,"color":"#8000ff","task":"circle","trial_type":"html-keyboard-response","trial_index":43,"time_elapsed":441224,"internal_node_id":"0.0-2.0-0.41"},{"rt":null,"stimulus":"<div style=\"width:400px; height: 400px; border-radius: 400px; background-color: #0000ff;\"></div>","response":null,"color":"#0000ff","task":"circle","trial_type":"html-keyboard-response","trial_index":44,"time_elapsed":441943,"internal_node_id":"0.0-2.0-0.42"},{"rt":null,"stimulus":"<div style=\"width:400px; height: 400px; border-radius: 400px; background-color: #0000ff;\"></div>","response":null,"color":"#0000ff","task":"circle","trial_type":"html-keyboard-response","trial_index":45,"time_elapsed":442672,"internal_node_id":"0.0-2.0-0.43"},{"rt":null,"stimulus":"<div style=\"width:400px; height: 400px; border-radius: 400px; background-color: #0000ff;\"></div>","response":null,"color":"#0000ff","task":"circle","trial_type":"html-keyboard-response","trial_index":46,"time_elapsed":443397,"internal_node_id":"0.0-2.0-0.44"},{"rt":null,"stimulus":"<div style=\"width:400px; height: 400px; border-radius: 400px; background-color: #ffaa00;\"></div>","response":null,"color":"#ffaa00","task":"circle","trial_type":"html-keyboard-response","trial_index":47,"time_elapsed":444123,"internal_node_id":"0.0-2.0-0.45"},{"rt":null,"stimulus":"<div style=\"width:400px; height: 400px; border-radius: 400px; background-color: #0000ff;\"></div>","response":null,"color":"#0000ff","task":"circle","trial_type":"html-keyboard-response","trial_index":48,"time_elapsed":444836,"internal_node_id":"0.0-2.0-0.46"},{"rt":null,"stimulus":"<div style=\"width:400px; height: 400px; border-radius: 400px; background-color: #0000ff;\"></div>","response":null,"color":"#0000ff","task":"circle","trial_type":"html-keyboard-response","trial_index":49,"time_elapsed":445562,"internal_node_id":"0.0-2.0-0.47"},{"rt":null,"stimulus":"<div style=\"width:400px; height: 400px; border-radius: 400px; background-color: #0000ff;\"></div>","response":null,"color":"#0000ff","task":"circle","trial_type":"html-keyboard-response","trial_index":50,"time_elapsed":446290,"internal_node_id":"0.0-2.0-0.48"},{"rt":null,"stimulus":"<div style=\"width:400px; height: 400px; border-radius: 400px; background-color: #0000ff;\"></div>","response":null,"color":"#0000ff","task":"circle","trial_type":"html-keyboard-response","trial_index":51,"time_elapsed":447017,"internal_node_id":"0.0-2.0-0.49"},{"rt":null,"stimulus":"<div style=\"width:400px; height: 400px; border-radius: 400px; background-color: #0000ff;\"></div>","response":null,"color":"#0000ff","task":"circle","trial_type":"html-keyboard-response","trial_index":52,"time_elapsed":447741,"internal_node_id":"0.0-2.0-0.50"},{"rt":null,"stimulus":"<div style=\"width:400px; height: 400px; border-radius: 400px; background-color: #0000ff;\"></div>","response":null,"color":"#0000ff","task":"circle","trial_type":"html-keyboard-response","trial_index":53,"time_elapsed":448469,"internal_node_id":"0.0-2.0-0.51"},{"rt":null,"stimulus":"<div style=\"width:400px; height: 400px; border-radius: 400px; background-color: #0000ff;\"></div>","response":null,"color":"#0000ff","task":"circle","trial_type":"html-keyboard-response","trial_index":54,"time_elapsed":449192,"internal_node_id":"0.0-2.0-0.52"},{"rt":null,"stimulus":"<div style=\"width:400px; height: 400px; border-radius: 400px; background-color: #0000ff;\"></div>","response":null,"color":"#0000ff","task":"circle","trial_type":"html-keyboard-response","trial_index":55,"time_elapsed":449920,"internal_node_id":"0.0-2.0-0.53"},{"rt":null,"stimulus":"<div style=\"width:400px; height: 400px; border-radius: 400px; background-color: #0000ff;\"></div>","response":null,"color":"#0000ff","task":"circle","trial_type":"html-keyboard-response","trial_index":56,"time_elapsed":450647,"internal_node_id":"0.0-2.0-0.54"},{"rt":null,"stimulus":"<div style=\"width:400px; height: 400px; border-radius: 400px; background-color: #0000ff;\"></div>","response":null,"color":"#0000ff","task":"circle","trial_type":"html-keyboard-response","trial_index":57,"time_elapsed":451376,"internal_node_id":"0.0-2.0-0.55"},{"rt":null,"stimulus":"<div style=\"width:400px; height: 400px; border-radius: 400px; background-color: #0000ff;\"></div>","response":null,"color":"#0000ff","task":"circle","trial_type":"html-keyboard-response","trial_index":58,"time_elapsed":452104,"internal_node_id":"0.0-2.0-0.56"},{"rt":null,"stimulus":"<div style=\"width:400px; height: 400px; border-radius: 400px; background-color: #8000ff;\"></div>","response":null,"color":"#8000ff","task":"circle","trial_type":"html-keyboard-response","trial_index":59,"time_elapsed":452825,"internal_node_id":"0.0-2.0-0.57"},{"rt":null,"stimulus":"<div style=\"width:400px; height: 400px; border-radius: 400px; background-color: #0000ff;\"></div>","response":null,"color":"#0000ff","task":"circle","trial_type":"html-keyboard-response","trial_index":60,"time_elapsed":453551,"internal_node_id":"0.0-2.0-0.58"},{"rt":null,"stimulus":"<div style=\"width:400px; height: 400px; border-radius: 400px; background-color: #ffaa00;\"></div>","response":null,"color":"#ffaa00","task":"circle","trial_type":"html-keyboard-response","trial_index":61,"time_elapsed":454266,"internal_node_id":"0.0-2.0-0.59"},{"rt":null,"stimulus":"<div style=\"width:400px; height: 400px; border-radius: 400px; background-color: #0000ff;\"></div>","response":null,"color":"#0000ff","task":"circle","trial_type":"html-keyboard-response","trial_index":62,"time_elapsed":454992,"internal_node_id":"0.0-2.0-0.60"},{"rt":null,"stimulus":"<div style=\"width:400px; height: 400px; border-radius: 400px; background-color: #0000ff;\"></div>","response":null,"color":"#0000ff","task":"circle","trial_type":"html-keyboard-response","trial_index":63,"time_elapsed":455715,"internal_node_id":"0.0-2.0-0.61"},{"rt":null,"stimulus":"<div style=\"width:400px; height: 400px; border-radius: 400px; background-color: #0000ff;\"></div>","response":null,"color":"#0000ff","task":"circle","trial_type":"html-keyboard-response","trial_index":64,"time_elapsed":456440,"internal_node_id":"0.0-2.0-0.62"},{"rt":null,"stimulus":"<div style=\"width:400px; height: 400px; border-radius: 400px; background-color: #ffaa00;\"></div>","response":null,"color":"#ffaa00","task":"circle","trial_type":"html-keyboard-response","trial_index":65,"time_elapsed":457165,"internal_node_id":"0.0-2.0-0.63"},{"rt":null,"stimulus":"<div style=\"width:400px; height: 400px; border-radius: 400px; background-color: #0000ff;\"></div>","response":null,"color":"#0000ff","task":"circle","trial_type":"html-keyboard-response","trial_index":66,"time_elapsed":457892,"internal_node_id":"0.0-2.0-0.64"},{"rt":null,"stimulus":"<div style=\"width:400px; height: 400px; border-radius: 400px; background-color: #0000ff;\"></div>","response":null,"color":"#0000ff","task":"circle","trial_type":"html-keyboard-response","trial_index":67,"time_elapsed":458617,"internal_node_id":"0.0-2.0-0.65"},{"rt":null,"stimulus":"<div style=\"width:400px; height: 400px; border-radius: 400px; background-color: #0000ff;\"></div>","response":null,"color":"#0000ff","task":"circle","trial_type":"html-keyboard-response","trial_index":68,"time_elapsed":459339,"internal_node_id":"0.0-2.0-0.66"},{"rt":null,"stimulus":"<div style=\"width:400px; height: 400px; border-radius: 400px; background-color: #8000ff;\"></div>","response":null,"color":"#8000ff","task":"circle","trial_type":"html-keyboard-response","trial_index":69,"time_elapsed":460060,"internal_node_id":"0.0-2.0-0.67"},{"rt":null,"stimulus":"<div style=\"width:400px; height: 400px; border-radius: 400px; background-color: #0000ff;\"></div>","response":null,"color":"#0000ff","task":"circle","trial_type":"html-keyboard-response","trial_index":70,"time_elapsed":460787,"internal_node_id":"0.0-2.0-0.68"},{"rt":null,"stimulus":"<div style=\"width:400px; height: 400px; border-radius: 400px; background-color: #0000ff;\"></div>","response":null,"color":"#0000ff","task":"circle","trial_type":"html-keyboard-response","trial_index":71,"time_elapsed":461510,"internal_node_id":"0.0-2.0-0.69"},{"rt":null,"stimulus":"<div style=\"width:400px; height: 400px; border-radius: 400px; background-color: #0000ff;\"></div>","response":null,"color":"#0000ff","task":"circle","trial_type":"html-keyboard-response","trial_index":72,"time_elapsed":462235,"internal_node_id":"0.0-2.0-0.70"},{"rt":null,"stimulus":"<div style=\"width:400px; height: 400px; border-radius: 400px; background-color: #ffaa00;\"></div>","response":null,"color":"#ffaa00","task":"circle","trial_type":"html-keyboard-response","trial_index":73,"time_elapsed":462961,"internal_node_id":"0.0-2.0-0.71"},{"rt":null,"stimulus":"<div style=\"width:400px; height: 400px; border-radius: 400px; background-color: #0000ff;\"></div>","response":null,"color":"#0000ff","task":"circle","trial_type":"html-keyboard-response","trial_index":74,"time_elapsed":463686,"internal_node_id":"0.0-2.0-0.72"},{"rt":null,"stimulus":"<div style=\"width:400px; height: 400px; border-radius: 400px; background-color: #0000ff;\"></div>","response":null,"color":"#0000ff","task":"circle","trial_type":"html-keyboard-response","trial_index":75,"time_elapsed":464407,"internal_node_id":"0.0-2.0-0.73"},{"rt":null,"stimulus":"<div style=\"width:400px; height: 400px; border-radius: 400px; background-color: #0000ff;\"></div>","response":null,"color":"#0000ff","task":"circle","trial_type":"html-keyboard-response","trial_index":76,"time_elapsed":465130,"internal_node_id":"0.0-2.0-0.74"},{"rt":null,"stimulus":"<div style=\"width:400px; height: 400px; border-radius: 400px; background-color: #0000ff;\"></div>","response":null,"color":"#0000ff","task":"circle","trial_type":"html-keyboard-response","trial_index":77,"time_elapsed":465859,"internal_node_id":"0.0-2.0-0.75"},{"rt":null,"stimulus":"<div style=\"width:400px; height: 400px; border-radius: 400px; background-color: #8000ff;\"></div>","response":null,"color":"#8000ff","task":"circle","trial_type":"html-keyboard-response","trial_index":78,"time_elapsed":466583,"internal_node_id":"0.0-2.0-0.76"},{"rt":null,"stimulus":"<div style=\"width:400px; height: 400px; border-radius: 400px; background-color: #0000ff;\"></div>","response":null,"color":"#0000ff","task":"circle","trial_type":"html-keyboard-response","trial_index":79,"time_elapsed":467305,"internal_node_id":"0.0-2.0-0.77"},{"rt":null,"stimulus":"<div style=\"width:400px; height: 400px; border-radius: 400px; background-color: #0000ff;\"></div>","response":null,"color":"#0000ff","task":"circle","trial_type":"html-keyboard-response","trial_index":80,"time_elapsed":468033,"internal_node_id":"0.0-2.0-0.78"},{"rt":null,"stimulus":"<div style=\"width:400px; height: 400px; border-radius: 400px; background-color: #0000ff;\"></div>","response":null,"color":"#0000ff","task":"circle","trial_type":"html-keyboard-response","trial_index":81,"time_elapsed":468756,"internal_node_id":"0.0-2.0-0.79"},{"rt":null,"stimulus":"<div style=\"width:400px; height: 400px; border-radius: 400px; background-color: #0000ff;\"></div>","response":null,"color":"#0000ff","task":"circle","trial_type":"html-keyboard-response","trial_index":82,"time_elapsed":469478,"internal_node_id":"0.0-2.0-0.80"},{"rt":null,"stimulus":"<div style=\"width:400px; height: 400px; border-radius: 400px; background-color: #0000ff;\"></div>","response":null,"color":"#0000ff","task":"circle","trial_type":"html-keyboard-response","trial_index":83,"time_elapsed":470202,"internal_node_id":"0.0-2.0-0.81"},{"rt":null,"stimulus":"<div style=\"width:400px; height: 400px; border-radius: 400px; background-color: #8000ff;\"></div>","response":null,"color":"#8000ff","task":"circle","trial_type":"html-keyboard-response","trial_index":84,"time_elapsed":470928,"internal_node_id":"0.0-2.0-0.82"},{"rt":null,"stimulus":"<div style=\"width:400px; height: 400px; border-radius: 400px; background-color: #0000ff;\"></div>","response":null,"color":"#0000ff","task":"circle","trial_type":"html-keyboard-response","trial_index":85,"time_elapsed":471648,"internal_node_id":"0.0-2.0-0.83"},{"rt":null,"stimulus":"<div style=\"width:400px; height: 400px; border-radius: 400px; background-color: #0000ff;\"></div>","response":null,"color":"#0000ff","task":"circle","trial_type":"html-keyboard-response","trial_index":86,"time_elapsed":472374,"internal_node_id":"0.0-2.0-0.84"},{"rt":null,"stimulus":"<div style=\"width:400px; height: 400px; border-radius: 400px; background-color: #0000ff;\"></div>","response":null,"color":"#0000ff","task":"circle","trial_type":"html-keyboard-response","trial_index":87,"time_elapsed":473099,"internal_node_id":"0.0-2.0-0.85"},{"rt":null,"stimulus":"<div style=\"width:400px; height: 400px; border-radius: 400px; background-color: #0000ff;\"></div>","response":null,"color":"#0000ff","task":"circle","trial_type":"html-keyboard-response","trial_index":88,"time_elapsed":473826,"internal_node_id":"0.0-2.0-0.86"},{"rt":null,"stimulus":"<div style=\"width:400px; height: 400px; border-radius: 400px; background-color: #0000ff;\"></div>","response":null,"color":"#0000ff","task":"circle","trial_type":"html-keyboard-response","trial_index":89,"time_elapsed":474549,"internal_node_id":"0.0-2.0-0.87"},{"rt":null,"stimulus":"<div style=\"width:400px; height: 400px; border-radius: 400px; background-color: #0000ff;\"></div>","response":null,"color":"#0000ff","task":"circle","trial_type":"html-keyboard-response","trial_index":90,"time_elapsed":475275,"internal_node_id":"0.0-2.0-0.88"},{"rt":null,"stimulus":"<div style=\"width:400px; height: 400px; border-radius: 400px; background-color: #ffaa00;\"></div>","response":null,"color":"#ffaa00","task":"circle","trial_type":"html-keyboard-response","trial_index":91,"time_elapsed":476002,"internal_node_id":"0.0-2.0-0.89"},{"rt":null,"stimulus":"<div style=\"width:400px; height: 400px; border-radius: 400px; background-color: #0000ff;\"></div>","response":null,"color":"#0000ff","task":"circle","trial_type":"html-keyboard-response","trial_index":92,"time_elapsed":476730,"internal_node_id":"0.0-2.0-0.90"},{"rt":null,"stimulus":"<div style=\"width:400px; height: 400px; border-radius: 400px; background-color: #0000ff;\"></div>","response":null,"color":"#0000ff","task":"circle","trial_type":"html-keyboard-response","trial_index":93,"time_elapsed":477453,"internal_node_id":"0.0-2.0-0.91"},{"rt":null,"stimulus":"<div style=\"width:400px; height: 400px; border-radius: 400px; background-color: #0000ff;\"></div>","response":null,"color":"#0000ff","task":"circle","trial_type":"html-keyboard-response","trial_index":94,"time_elapsed":478184,"internal_node_id":"0.0-2.0-0.92"},{"rt":null,"stimulus":"<div style=\"width:400px; height: 400px; border-radius: 400px; background-color: #ffaa00;\"></div>","response":null,"color":"#ffaa00","task":"circle","trial_type":"html-keyboard-response","trial_index":95,"time_elapsed":478910,"internal_node_id":"0.0-2.0-0.93"},{"rt":null,"stimulus":"<div style=\"width:400px; height: 400px; border-radius: 400px; background-color: #0000ff;\"></div>","response":null,"color":"#0000ff","task":"circle","trial_type":"html-keyboard-response","trial_index":96,"time_elapsed":479637,"internal_node_id":"0.0-2.0-0.94"},{"rt":null,"stimulus":"<div style=\"width:400px; height: 400px; border-radius: 400px; background-color: #0000ff;\"></div>","response":null,"color":"#0000ff","task":"circle","trial_type":"html-keyboard-response","trial_index":97,"time_elapsed":480364,"internal_node_id":"0.0-2.0-0.95"},{"rt":null,"stimulus":"<div style=\"width:400px; height: 400px; border-radius: 400px; background-color: #0000ff;\"></div>","response":null,"color":"#0000ff","task":"circle","trial_type":"html-keyboard-response","trial_index":98,"time_elapsed":481090,"internal_node_id":"0.0-2.0-0.96"},{"rt":null,"stimulus":"<div style=\"width:400px; height: 400px; border-radius: 400px; background-color: #8000ff;\"></div>","response":null,"color":"#8000ff","task":"circle","trial_type":"html-keyboard-response","trial_index":99,"time_elapsed":481818,"internal_node_id":"0.0-2.0-0.97"},{"rt":null,"stimulus":"<div style=\"width:400px; height: 400px; border-radius: 400px; background-color: #0000ff;\"></div>","response":null,"color":"#0000ff","task":"circle","trial_type":"html-keyboard-response","trial_index":100,"time_elapsed":482543,"internal_node_id":"0.0-2.0-0.98"},{"rt":null,"stimulus":"<div style=\"width:400px; height: 400px; border-radius: 400px; background-color: #0000ff;\"></div>","response":null,"color":"#0000ff","task":"circle","trial_type":"html-keyboard-response","trial_index":101,"time_elapsed":483268,"internal_node_id":"0.0-2.0-0.99"},{"rt":null,"stimulus":"<div style=\"width:400px; height: 400px; border-radius: 400px; background-color: #0000ff;\"></div>","response":null,"color":"#0000ff","task":"circle","trial_type":"html-keyboard-response","trial_index":102,"time_elapsed":483992,"internal_node_id":"0.0-2.0-0.100"},{"rt":null,"stimulus":"<div style=\"width:400px; height: 400px; border-radius: 400px; background-color: #0000ff;\"></div>","response":null,"color":"#0000ff","task":"circle","trial_type":"html-keyboard-response","trial_index":103,"time_elapsed":484720,"internal_node_id":"0.0-2.0-0.101"},{"rt":null,"stimulus":"<div style=\"width:400px; height: 400px; border-radius: 400px; background-color: #0000ff;\"></div>","response":null,"color":"#0000ff","task":"circle","trial_type":"html-keyboard-response","trial_index":104,"time_elapsed":485446,"internal_node_id":"0.0-2.0-0.102"},{"rt":null,"stimulus":"<div style=\"width:400px; height: 400px; border-radius: 400px; background-color: #0000ff;\"></div>","response":null,"color":"#0000ff","task":"circle","trial_type":"html-keyboard-response","trial_index":105,"time_elapsed":486172,"internal_node_id":"0.0-2.0-0.103"},{"rt":null,"stimulus":"<div style=\"width:400px; height: 400px; border-radius: 400px; background-color: #0000ff;\"></div>","response":null,"color":"#0000ff","task":"circle","trial_type":"html-keyboard-response","trial_index":106,"time_elapsed":486895,"internal_node_id":"0.0-2.0-0.104"},{"rt":null,"stimulus":"<div style=\"width:400px; height: 400px; border-radius: 400px; background-color: #ffaa00;\"></div>","response":null,"color":"#ffaa00","task":"circle","trial_type":"html-keyboard-response","trial_index":107,"time_elapsed":487620,"internal_node_id":"0.0-2.0-0.105"},{"rt":null,"stimulus":"<div style=\"width:400px; height: 400px; border-radius: 400px; background-color: #8000ff;\"></div>","response":null,"color":"#8000ff","task":"circle","trial_type":"html-keyboard-response","trial_index":108,"time_elapsed":488343,"internal_node_id":"0.0-2.0-0.106"},{"rt":null,"stimulus":"<div style=\"width:400px; height: 400px; border-radius: 400px; background-color: #0000ff;\"></div>","response":null,"color":"#0000ff","task":"circle","trial_type":"html-keyboard-response","trial_index":109,"time_elapsed":489069,"internal_node_id":"0.0-2.0-0.107"},{"rt":null,"stimulus":"<div style=\"width:400px; height: 400px; border-radius: 400px; background-color: #0000ff;\"></div>","response":null,"color":"#0000ff","task":"circle","trial_type":"html-keyboard-response","trial_index":110,"time_elapsed":489789,"internal_node_id":"0.0-2.0-0.108"},{"rt":null,"stimulus":"<div style=\"width:400px; height: 400px; border-radius: 400px; background-color: #0000ff;\"></div>","response":null,"color":"#0000ff","task":"circle","trial_type":"html-keyboard-response","trial_index":111,"time_elapsed":490514,"internal_node_id":"0.0-2.0-0.109"},{"rt":null,"stimulus":"<div style=\"width:400px; height: 400px; border-radius: 400px; background-color: #0000ff;\"></div>","response":null,"color":"#0000ff","task":"circle","trial_type":"html-keyboard-response","trial_index":112,"time_elapsed":491234,"internal_node_id":"0.0-2.0-0.110"},{"rt":null,"stimulus":"<div style=\"width:400px; height: 400px; border-radius: 400px; background-color: #0000ff;\"></div>","response":null,"color":"#0000ff","task":"circle","trial_type":"html-keyboard-response","trial_index":113,"time_elapsed":491956,"internal_node_id":"0.0-2.0-0.111"},{"rt":null,"stimulus":"<div style=\"width:400px; height: 400px; border-radius: 400px; background-color: #ffaa00;\"></div>","response":null,"color":"#ffaa00","task":"circle","trial_type":"html-keyboard-response","trial_index":114,"time_elapsed":492684,"internal_node_id":"0.0-2.0-0.112"},{"rt":null,"stimulus":"<div style=\"width:400px; height: 400px; border-radius: 400px; background-color: #0000ff;\"></div>","response":null,"color":"#0000ff","task":"circle","trial_type":"html-keyboard-response","trial_index":115,"time_elapsed":493406,"internal_node_id":"0.0-2.0-0.113"},{"rt":null,"stimulus":"<div style=\"width:400px; height: 400px; border-radius: 400px; background-color: #0000ff;\"></div>","response":null,"color":"#0000ff","task":"circle","trial_type":"html-keyboard-response","trial_index":116,"time_elapsed":494136,"internal_node_id":"0.0-2.0-0.114"},{"rt":null,"stimulus":"<div style=\"width:400px; height: 400px; border-radius: 400px; background-color: #0000ff;\"></div>","response":null,"color":"#0000ff","task":"circle","trial_type":"html-keyboard-response","trial_index":117,"time_elapsed":494860,"internal_node_id":"0.0-2.0-0.115"},{"rt":null,"stimulus":"<div style=\"width:400px; height: 400px; border-radius: 400px; background-color: #0000ff;\"></div>","response":null,"color":"#0000ff","task":"circle","trial_type":"html-keyboard-response","trial_index":118,"time_elapsed":495584,"internal_node_id":"0.0-2.0-0.116"},{"rt":null,"stimulus":"<div style=\"width:400px; height: 400px; border-radius: 400px; background-color: #8000ff;\"></div>","response":null,"color":"#8000ff","task":"circle","trial_type":"html-keyboard-response","trial_index":119,"time_elapsed":496309,"internal_node_id":"0.0-2.0-0.117"},{"rt":null,"stimulus":"<div style=\"width:400px; height: 400px; border-radius: 400px; background-color: #0000ff;\"></div>","response":null,"color":"#0000ff","task":"circle","trial_type":"html-keyboard-response","trial_index":120,"time_elapsed":497034,"internal_node_id":"0.0-2.0-0.118"},{"rt":null,"stimulus":"<div style=\"width:400px; height: 400px; border-radius: 400px; background-color: #0000ff;\"></div>","response":null,"color":"#0000ff","task":"circle","trial_type":"html-keyboard-response","trial_index":121,"time_elapsed":497762,"internal_node_id":"0.0-2.0-0.119"},{"rt":null,"stimulus":"<div style=\"width:400px; height: 400px; border-radius: 400px; background-color: #0000ff;\"></div>","response":null,"color":"#0000ff","task":"circle","trial_type":"html-keyboard-response","trial_index":122,"time_elapsed":498488,"internal_node_id":"0.0-2.0-0.120"},{"rt":null,"stimulus":"<div style=\"width:400px; height: 400px; border-radius: 400px; background-color: #0000ff;\"></div>","response":null,"color":"#0000ff","task":"circle","trial_type":"html-keyboard-response","trial_index":123,"time_elapsed":499212,"internal_node_id":"0.0-2.0-0.121"},{"rt":null,"stimulus":"<div style=\"width:400px; height: 400px; border-radius: 400px; background-color: #ffaa00;\"></div>","response":null,"color":"#ffaa00","task":"circle","trial_type":"html-keyboard-response","trial_index":124,"time_elapsed":499936,"internal_node_id":"0.0-2.0-0.122"},{"rt":null,"stimulus":"<div style=\"width:400px; height: 400px; border-radius: 400px; background-color: #0000ff;\"></div>","response":null,"color":"#0000ff","task":"circle","trial_type":"html-keyboard-response","trial_index":125,"time_elapsed":500662,"internal_node_id":"0.0-2.0-0.123"},{"rt":null,"stimulus":"<div style=\"width:400px; height: 400px; border-radius: 400px; background-color: #0000ff;\"></div>","response":null,"color":"#0000ff","task":"circle","trial_type":"html-keyboard-response","trial_index":126,"time_elapsed":501390,"internal_node_id":"0.0-2.0-0.124"},{"rt":null,"stimulus":"<div style=\"width:400px; height: 400px; border-radius: 400px; background-color: #8000ff;\"></div>","response":null,"color":"#8000ff","task":"circle","trial_type":"html-keyboard-response","trial_index":127,"time_elapsed":502102,"internal_node_id":"0.0-2.0-0.125"},{"rt":null,"stimulus":"<div style=\"width:400px; height: 400px; border-radius: 400px; background-color: #0000ff;\"></div>","response":null,"color":"#0000ff","task":"circle","trial_type":"html-keyboard-response","trial_index":128,"time_elapsed":502827,"internal_node_id":"0.0-2.0-0.126"},{"rt":null,"stimulus":"<div style=\"width:400px; height: 400px; border-radius: 400px; background-color: #0000ff;\"></div>","response":null,"color":"#0000ff","task":"circle","trial_type":"html-keyboard-response","trial_index":129,"time_elapsed":503555,"internal_node_id":"0.0-2.0-0.127"},{"rt":null,"stimulus":"<div style=\"width:400px; height: 400px; border-radius: 400px; background-color: #0000ff;\"></div>","response":null,"color":"#0000ff","task":"circle","trial_type":"html-keyboard-response","trial_index":130,"time_elapsed":504283,"internal_node_id":"0.0-2.0-0.128"},{"rt":null,"stimulus":"<div style=\"width:400px; height: 400px; border-radius: 400px; background-color: #0000ff;\"></div>","response":null,"color":"#0000ff","task":"circle","trial_type":"html-keyboard-response","trial_index":131,"time_elapsed":505008,"internal_node_id":"0.0-2.0-0.129"},{"rt":null,"stimulus":"<div style=\"width:400px; height: 400px; border-radius: 400px; background-color: #0000ff;\"></div>","response":null,"color":"#0000ff","task":"circle","trial_type":"html-keyboard-response","trial_index":132,"time_elapsed":505731,"internal_node_id":"0.0-2.0-0.130"},{"rt":null,"stimulus":"<div style=\"width:400px; height: 400px; border-radius: 400px; background-color: #ffaa00;\"></div>","response":null,"color":"#ffaa00","task":"circle","trial_type":"html-keyboard-response","trial_index":133,"time_elapsed":506458,"internal_node_id":"0.0-2.0-0.131"},{"rt":null,"stimulus":"<div style=\"width:400px; height: 400px; border-radius: 400px; background-color: #8000ff;\"></div>","response":null,"color":"#8000ff","task":"circle","trial_type":"html-keyboard-response","trial_index":134,"time_elapsed":507170,"internal_node_id":"0.0-2.0-0.132"},{"rt":null,"stimulus":"<div style=\"width:400px; height: 400px; border-radius: 400px; background-color: #0000ff;\"></div>","response":null,"color":"#0000ff","task":"circle","trial_type":"html-keyboard-response","trial_index":135,"time_elapsed":507899,"internal_node_id":"0.0-2.0-0.133"},{"rt":null,"stimulus":"<div style=\"width:400px; height: 400px; border-radius: 400px; background-color: #0000ff;\"></div>","response":null,"color":"#0000ff","task":"circle","trial_type":"html-keyboard-response","trial_index":136,"time_elapsed":508630,"internal_node_id":"0.0-2.0-0.134"},{"rt":null,"stimulus":"<div style=\"width:400px; height: 400px; border-radius: 400px; background-color: #0000ff;\"></div>","response":null,"color":"#0000ff","task":"circle","trial_type":"html-keyboard-response","trial_index":137,"time_elapsed":509353,"internal_node_id":"0.0-2.0-0.135"},{"rt":null,"stimulus":"<div style=\"width:400px; height: 400px; border-radius: 400px; background-color: #0000ff;\"></div>","response":null,"color":"#0000ff","task":"circle","trial_type":"html-keyboard-response","trial_index":138,"time_elapsed":510076,"internal_node_id":"0.0-2.0-0.136"},{"rt":null,"stimulus":"<div style=\"width:400px; height: 400px; border-radius: 400px; background-color: #0000ff;\"></div>","response":null,"color":"#0000ff","task":"circle","trial_type":"html-keyboard-response","trial_index":139,"time_elapsed":510800,"internal_node_id":"0.0-2.0-0.137"},{"rt":null,"stimulus":"<div style=\"width:400px; height: 400px; border-radius: 400px; background-color: #0000ff;\"></div>","response":null,"color":"#0000ff","task":"circle","trial_type":"html-keyboard-response","trial_index":140,"time_elapsed":511530,"internal_node_id":"0.0-2.0-0.138"},{"rt":null,"stimulus":"<div style=\"width:400px; height: 400px; border-radius: 400px; background-color: #0000ff;\"></div>","response":null,"color":"#0000ff","task":"circle","trial_type":"html-keyboard-response","trial_index":141,"time_elapsed":512255,"internal_node_id":"0.0-2.0-0.139"},{"rt":null,"stimulus":"<div style=\"width:400px; height: 400px; border-radius: 400px; background-color: #0000ff;\"></div>","response":null,"color":"#0000ff","task":"circle","trial_type":"html-keyboard-response","trial_index":142,"time_elapsed":512982,"internal_node_id":"0.0-2.0-0.140"},{"rt":null,"stimulus":"<div style=\"width:400px; height: 400px; border-radius: 400px; background-color: #0000ff;\"></div>","response":null,"color":"#0000ff","task":"circle","trial_type":"html-keyboard-response","trial_index":143,"time_elapsed":513705,"internal_node_id":"0.0-2.0-0.141"},{"rt":null,"stimulus":"<div style=\"width:400px; height: 400px; border-radius: 400px; background-color: #0000ff;\"></div>","response":null,"color":"#0000ff","task":"circle","trial_type":"html-keyboard-response","trial_index":144,"time_elapsed":514417,"internal_node_id":"0.0-2.0-0.142"},{"rt":null,"stimulus":"<div style=\"width:400px; height: 400px; border-radius: 400px; background-color: #0000ff;\"></div>","response":null,"color":"#0000ff","task":"circle","trial_type":"html-keyboard-response","trial_index":145,"time_elapsed":515142,"internal_node_id":"0.0-2.0-0.143"},{"rt":null,"stimulus":"<div style=\"width:400px; height: 400px; border-radius: 400px; background-color: #8000ff;\"></div>","response":null,"color":"#8000ff","task":"circle","trial_type":"html-keyboard-response","trial_index":146,"time_elapsed":515868,"internal_node_id":"0.0-2.0-0.144"},{"rt":null,"stimulus":"<div style=\"width:400px; height: 400px; border-radius: 400px; background-color: #0000ff;\"></div>","response":null,"color":"#0000ff","task":"circle","trial_type":"html-keyboard-response","trial_index":147,"time_elapsed":516595,"internal_node_id":"0.0-2.0-0.145"},{"rt":null,"stimulus":"<div style=\"width:400px; height: 400px; border-radius: 400px; background-color: #0000ff;\"></div>","response":null,"color":"#0000ff","task":"circle","trial_type":"html-keyboard-response","trial_index":148,"time_elapsed":517320,"internal_node_id":"0.0-2.0-0.146"},{"rt":null,"stimulus":"<div style=\"width:400px; height: 400px; border-radius: 400px; background-color: #0000ff;\"></div>","response":null,"color":"#0000ff","task":"circle","trial_type":"html-keyboard-response","trial_index":149,"time_elapsed":518050,"internal_node_id":"0.0-2.0-0.147"},{"rt":null,"stimulus":"<div style=\"width:400px; height: 400px; border-radius: 400px; background-color: #ffaa00;\"></div>","response":null,"color":"#ffaa00","task":"circle","trial_type":"html-keyboard-response","trial_index":150,"time_elapsed":518770,"internal_node_id":"0.0-2.0-0.148"},{"rt":null,"stimulus":"<div style=\"width:400px; height: 400px; border-radius: 400px; background-color: #0000ff;\"></div>","response":null,"color":"#0000ff","task":"circle","trial_type":"html-keyboard-response","trial_index":151,"time_elapsed":519499,"internal_node_id":"0.0-2.0-0.149"},{"rt":null,"stimulus":"<div style=\"width:400px; height: 400px; border-radius: 400px; background-color: #0000ff;\"></div>","response":null,"color":"#0000ff","task":"circle","trial_type":"html-keyboard-response","trial_index":152,"time_elapsed":520222,"internal_node_id":"0.0-2.0-0.150"},{"rt":null,"stimulus":"<div style=\"width:400px; height: 400px; border-radius: 400px; background-color: #0000ff;\"></div>","response":null,"color":"#0000ff","task":"circle","trial_type":"html-keyboard-response","trial_index":153,"time_elapsed":520953,"internal_node_id":"0.0-2.0-0.151"},{"rt":null,"stimulus":"<div style=\"width:400px; height: 400px; border-radius: 400px; background-color: #0000ff;\"></div>","response":null,"color":"#0000ff","task":"circle","trial_type":"html-keyboard-response","trial_index":154,"time_elapsed":521667,"internal_node_id":"0.0-2.0-0.152"},{"rt":null,"stimulus":"<div style=\"width:400px; height: 400px; border-radius: 400px; background-color: #0000ff;\"></div>","response":null,"color":"#0000ff","task":"circle","trial_type":"html-keyboard-response","trial_index":155,"time_elapsed":522392,"internal_node_id":"0.0-2.0-0.153"},{"rt":null,"stimulus":"<div style=\"width:400px; height: 400px; border-radius: 400px; background-color: #0000ff;\"></div>","response":null,"color":"#0000ff","task":"circle","trial_type":"html-keyboard-response","trial_index":156,"time_elapsed":523120,"internal_node_id":"0.0-2.0-0.154"},{"rt":null,"stimulus":"<div style=\"width:400px; height: 400px; border-radius: 400px; background-color: #ffaa00;\"></div>","response":null,"color":"#ffaa00","task":"circle","trial_type":"html-keyboard-response","trial_index":157,"time_elapsed":523845,"internal_node_id":"0.0-2.0-0.155"},{"rt":null,"stimulus":"<div style=\"width:400px; height: 400px; border-radius: 400px; background-color: #8000ff;\"></div>","response":null,"color":"#8000ff","task":"circle","trial_type":"html-keyboard-response","trial_index":158,"time_elapsed":524571,"internal_node_id":"0.0-2.0-0.156"},{"rt":null,"stimulus":"<div style=\"width:400px; height: 400px; border-radius: 400px; background-color: #0000ff;\"></div>","response":null,"color":"#0000ff","task":"circle","trial_type":"html-keyboard-response","trial_index":159,"time_elapsed":525295,"internal_node_id":"0.0-2.0-0.157"},{"rt":null,"stimulus":"<div style=\"width:400px; height: 400px; border-radius: 400px; background-color: #0000ff;\"></div>","response":null,"color":"#0000ff","task":"circle","trial_type":"html-keyboard-response","trial_index":160,"time_elapsed":526020,"internal_node_id":"0.0-2.0-0.158"},{"rt":null,"stimulus":"<div style=\"width:400px; height: 400px; border-radius: 400px; background-color: #0000ff;\"></div>","response":null,"color":"#0000ff","task":"circle","trial_type":"html-keyboard-response","trial_index":161,"time_elapsed":526745,"internal_node_id":"0.0-2.0-0.159"},{"rt":null,"stimulus":"<div style=\"width:400px; height: 400px; border-radius: 400px; background-color: #0000ff;\"></div>","response":null,"color":"#0000ff","task":"circle","trial_type":"html-keyboard-response","trial_index":162,"time_elapsed":527471,"internal_node_id":"0.0-2.0-0.160"},{"rt":null,"stimulus":"<div style=\"width:400px; height: 400px; border-radius: 400px; background-color: #0000ff;\"></div>","response":null,"color":"#0000ff","task":"circle","trial_type":"html-keyboard-response","trial_index":163,"time_elapsed":528201,"internal_node_id":"0.0-2.0-0.161"},{"rt":null,"stimulus":"<div style=\"width:400px; height: 400px; border-radius: 400px; background-color: #0000ff;\"></div>","response":null,"color":"#0000ff","task":"circle","trial_type":"html-keyboard-response","trial_index":164,"time_elapsed":528930,"internal_node_id":"0.0-2.0-0.162"},{"rt":null,"stimulus":"<div style=\"width:400px; height: 400px; border-radius: 400px; background-color: #ffaa00;\"></div>","response":null,"color":"#ffaa00","task":"circle","trial_type":"html-keyboard-response","trial_index":165,"time_elapsed":529652,"internal_node_id":"0.0-2.0-0.163"},{"rt":null,"stimulus":"<div style=\"width:400px; height: 400px; border-radius: 400px; background-color: #0000ff;\"></div>","response":null,"color":"#0000ff","task":"circle","trial_type":"html-keyboard-response","trial_index":166,"time_elapsed":530371,"internal_node_id":"0.0-2.0-0.164"},{"rt":null,"stimulus":"<div style=\"width:400px; height: 400px; border-radius: 400px; background-color: #0000ff;\"></div>","response":null,"color":"#0000ff","task":"circle","trial_type":"html-keyboard-response","trial_index":167,"time_elapsed":531098,"internal_node_id":"0.0-2.0-0.165"},{"rt":null,"stimulus":"<div style=\"width:400px; height: 400px; border-radius: 400px; background-color: #0000ff;\"></div>","response":null,"color":"#0000ff","task":"circle","trial_type":"html-keyboard-response","trial_index":168,"time_elapsed":531823,"internal_node_id":"0.0-2.0-0.166"},{"rt":null,"stimulus":"<div style=\"width:400px; height: 400px; border-radius: 400px; background-color: #8000ff;\"></div>","response":null,"color":"#8000ff","task":"circle","trial_type":"html-keyboard-response","trial_index":169,"time_elapsed":532552,"internal_node_id":"0.0-2.0-0.167"},{"rt":null,"stimulus":"<div style=\"width:400px; height: 400px; border-radius: 400px; background-color: #0000ff;\"></div>","response":null,"color":"#0000ff","task":"circle","trial_type":"html-keyboard-response","trial_index":170,"time_elapsed":533278,"internal_node_id":"0.0-2.0-0.168"},{"rt":null,"stimulus":"<div style=\"width:400px; height: 400px; border-radius: 400px; background-color: #0000ff;\"></div>","response":null,"color":"#0000ff","task":"circle","trial_type":"html-keyboard-response","trial_index":171,"time_elapsed":534003,"internal_node_id":"0.0-2.0-0.169"},{"rt":null,"stimulus":"<div style=\"width:400px; height: 400px; border-radius: 400px; background-color: #0000ff;\"></div>","response":null,"color":"#0000ff","task":"circle","trial_type":"html-keyboard-response","trial_index":172,"time_elapsed":534729,"internal_node_id":"0.0-2.0-0.170"},{"rt":null,"stimulus":"<div style=\"width:400px; height: 400px; border-radius: 400px; background-color: #0000ff;\"></div>","response":null,"color":"#0000ff","task":"circle","trial_type":"html-keyboard-response","trial_index":173,"time_elapsed":535458,"internal_node_id":"0.0-2.0-0.171"},{"rt":null,"stimulus":"<div style=\"width:400px; height: 400px; border-radius: 400px; background-color: #0000ff;\"></div>","response":null,"color":"#0000ff","task":"circle","trial_type":"html-keyboard-response","trial_index":174,"time_elapsed":536181,"internal_node_id":"0.0-2.0-0.172"},{"rt":null,"stimulus":"<div style=\"width:400px; height: 400px; border-radius: 400px; background-color: #0000ff;\"></div>","response":null,"color":"#0000ff","task":"circle","trial_type":"html-keyboard-response","trial_index":175,"time_elapsed":536905,"internal_node_id":"0.0-2.0-0.173"},{"rt":null,"stimulus":"<div style=\"width:400px; height: 400px; border-radius: 400px; background-color: #0000ff;\"></div>","response":null,"color":"#0000ff","task":"circle","trial_type":"html-keyboard-response","trial_index":176,"time_elapsed":537631,"internal_node_id":"0.0-2.0-0.174"},{"rt":null,"stimulus":"<div style=\"width:400px; height: 400px; border-radius: 400px; background-color: #ffaa00;\"></div>","response":null,"color":"#ffaa00","task":"circle","trial_type":"html-keyboard-response","trial_index":177,"time_elapsed":538356,"internal_node_id":"0.0-2.0-0.175"},{"rt":null,"stimulus":"<div style=\"width:400px; height: 400px; border-radius: 400px; background-color: #0000ff;\"></div>","response":null,"color":"#0000ff","task":"circle","trial_type":"html-keyboard-response","trial_index":178,"time_elapsed":539081,"internal_node_id":"0.0-2.0-0.176"},{"rt":null,"stimulus":"<div style=\"width:400px; height: 400px; border-radius: 400px; background-color: #0000ff;\"></div>","response":null,"color":"#0000ff","task":"circle","trial_type":"html-keyboard-response","trial_index":179,"time_elapsed":539807,"internal_node_id":"0.0-2.0-0.177"},{"rt":null,"stimulus":"<div style=\"width:400px; height: 400px; border-radius: 400px; background-color: #8000ff;\"></div>","response":null,"color":"#8000ff","task":"circle","trial_type":"html-keyboard-response","trial_index":180,"time_elapsed":540533,"internal_node_id":"0.0-2.0-0.178"},{"rt":null,"stimulus":"<div style=\"width:400px; height: 400px; border-radius: 400px; background-color: #0000ff;\"></div>","response":null,"color":"#0000ff","task":"circle","trial_type":"html-keyboard-response","trial_index":181,"time_elapsed":541260,"internal_node_id":"0.0-2.0-0.179"},{"rt":null,"stimulus":"<div style=\"width:400px; height: 400px; border-radius: 400px; background-color: #ffaa00;\"></div>","response":null,"color":"#ffaa00","task":"circle","trial_type":"html-keyboard-response","trial_index":182,"time_elapsed":541985,"internal_node_id":"0.0-2.0-0.180"},{"rt":null,"stimulus":"<div style=\"width:400px; height: 400px; border-radius: 400px; background-color: #0000ff;\"></div>","response":null,"color":"#0000ff","task":"circle","trial_type":"html-keyboard-response","trial_index":183,"time_elapsed":542711,"internal_node_id":"0.0-2.0-0.181"},{"rt":null,"stimulus":"<div style=\"width:400px; height: 400px; border-radius: 400px; background-color: #0000ff;\"></div>","response":null,"color":"#0000ff","task":"circle","trial_type":"html-keyboard-response","trial_index":184,"time_elapsed":543439,"internal_node_id":"0.0-2.0-0.182"},{"rt":null,"stimulus":"<div style=\"width:400px; height: 400px; border-radius: 400px; background-color: #0000ff;\"></div>","response":null,"color":"#0000ff","task":"circle","trial_type":"html-keyboard-response","trial_index":185,"time_elapsed":544166,"internal_node_id":"0.0-2.0-0.183"},{"rt":null,"stimulus":"<div style=\"width:400px; height: 400px; border-radius: 400px; background-color: #0000ff;\"></div>","response":null,"color":"#0000ff","task":"circle","trial_type":"html-keyboard-response","trial_index":186,"time_elapsed":544891,"internal_node_id":"0.0-2.0-0.184"},{"rt":null,"stimulus":"<div style=\"width:400px; height: 400px; border-radius: 400px; background-color: #0000ff;\"></div>","response":null,"color":"#0000ff","task":"circle","trial_type":"html-keyboard-response","trial_index":187,"time_elapsed":545616,"internal_node_id":"0.0-2.0-0.185"},{"rt":null,"stimulus":"<div style=\"width:400px; height: 400px; border-radius: 400px; background-color: #8000ff;\"></div>","response":null,"color":"#8000ff","task":"circle","trial_type":"html-keyboard-response","trial_index":188,"time_elapsed":546341,"internal_node_id":"0.0-2.0-0.186"},{"rt":null,"stimulus":"<div style=\"width:400px; height: 400px; border-radius: 400px; background-color: #0000ff;\"></div>","response":null,"color":"#0000ff","task":"circle","trial_type":"html-keyboard-response","trial_index":189,"time_elapsed":547067,"internal_node_id":"0.0-2.0-0.187"},{"rt":null,"stimulus":"<div style=\"width:400px; height: 400px; border-radius: 400px; background-color: #0000ff;\"></div>","response":null,"color":"#0000ff","task":"circle","trial_type":"html-keyboard-response","trial_index":190,"time_elapsed":547789,"internal_node_id":"0.0-2.0-0.188"},{"rt":null,"stimulus":"<div style=\"width:400px; height: 400px; border-radius: 400px; background-color: #0000ff;\"></div>","response":null,"color":"#0000ff","task":"circle","trial_type":"html-keyboard-response","trial_index":191,"time_elapsed":548518,"internal_node_id":"0.0-2.0-0.189"},{"rt":null,"stimulus":"<div style=\"width:400px; height: 400px; border-radius: 400px; background-color: #0000ff;\"></div>","response":null,"color":"#0000ff","task":"circle","trial_type":"html-keyboard-response","trial_index":192,"time_elapsed":549241,"internal_node_id":"0.0-2.0-0.190"},{"rt":null,"stimulus":"<div style=\"width:400px; height: 400px; border-radius: 400px; background-color: #0000ff;\"></div>","response":null,"color":"#0000ff","task":"circle","trial_type":"html-keyboard-response","trial_index":193,"time_elapsed":549968,"internal_node_id":"0.0-2.0-0.191"},{"rt":null,"stimulus":"<div style=\"width:400px; height: 400px; border-radius: 400px; background-color: #0000ff;\"></div>","response":null,"color":"#0000ff","task":"circle","trial_type":"html-keyboard-response","trial_index":194,"time_elapsed":550696,"internal_node_id":"0.0-2.0-0.192"},{"rt":null,"stimulus":"<div style=\"width:400px; height: 400px; border-radius: 400px; background-color: #0000ff;\"></div>","response":null,"color":"#0000ff","task":"circle","trial_type":"html-keyboard-response","trial_index":195,"time_elapsed":551422,"internal_node_id":"0.0-2.0-0.193"},{"rt":null,"stimulus":"<div style=\"width:400px; height: 400px; border-radius: 400px; background-color: #8000ff;\"></div>","response":null,"color":"#8000ff","task":"circle","trial_type":"html-keyboard-response","trial_index":196,"time_elapsed":552152,"internal_node_id":"0.0-2.0-0.194"},{"rt":null,"stimulus":"<div style=\"width:400px; height: 400px; border-radius: 400px; background-color: #0000ff;\"></div>","response":null,"color":"#0000ff","task":"circle","trial_type":"html-keyboard-response","trial_index":197,"time_elapsed":552876,"internal_node_id":"0.0-2.0-0.195"},{"rt":null,"stimulus":"<div style=\"width:400px; height: 400px; border-radius: 400px; background-color: #0000ff;\"></div>","response":null,"color":"#0000ff","task":"circle","trial_type":"html-keyboard-response","trial_index":198,"time_elapsed":553603,"internal_node_id":"0.0-2.0-0.196"},{"rt":null,"stimulus":"<div style=\"width:400px; height: 400px; border-radius: 400px; background-color: #0000ff;\"></div>","response":null,"color":"#0000ff","task":"circle","trial_type":"html-keyboard-response","trial_index":199,"time_elapsed":554326,"internal_node_id":"0.0-2.0-0.197"},{"rt":null,"stimulus":"<div style=\"width:400px; height: 400px; border-radius: 400px; background-color: #ffaa00;\"></div>","response":null,"color":"#ffaa00","task":"circle","trial_type":"html-keyboard-response","trial_index":200,"time_elapsed":555054,"internal_node_id":"0.0-2.0-0.198"},{"rt":null,"stimulus":"<div style=\"width:400px; height: 400px; border-radius: 400px; background-color: #0000ff;\"></div>","response":null,"color":"#0000ff","task":"circle","trial_type":"html-keyboard-response","trial_index":201,"time_elapsed":555786,"internal_node_id":"0.0-2.0-0.199"},{"rt":null,"stimulus":"<div style=\"width:400px; height: 400px; border-radius: 400px; background-color: #8000ff;\"></div>","response":null,"color":"#8000ff","task":"circle","trial_type":"html-keyboard-response","trial_index":202,"time_elapsed":556514,"internal_node_id":"0.0-2.0-0.200"},{"rt":null,"stimulus":"<div style=\"width:400px; height: 400px; border-radius: 400px; background-color: #0000ff;\"></div>","response":null,"color":"#0000ff","task":"circle","trial_type":"html-keyboard-response","trial_index":203,"time_elapsed":557240,"internal_node_id":"0.0-2.0-0.201"},{"rt":null,"stimulus":"<div style=\"width:400px; height: 400px; border-radius: 400px; background-color: #0000ff;\"></div>","response":null,"color":"#0000ff","task":"circle","trial_type":"html-keyboard-response","trial_index":204,"time_elapsed":557966,"internal_node_id":"0.0-2.0-0.202"},{"rt":null,"stimulus":"<div style=\"width:400px; height: 400px; border-radius: 400px; background-color: #0000ff;\"></div>","response":null,"color":"#0000ff","task":"circle","trial_type":"html-keyboard-response","trial_index":205,"time_elapsed":558693,"internal_node_id":"0.0-2.0-0.203"},{"rt":null,"stimulus":"<div style=\"width:400px; height: 400px; border-radius: 400px; background-color: #0000ff;\"></div>","response":null,"color":"#0000ff","task":"circle","trial_type":"html-keyboard-response","trial_index":206,"time_elapsed":559421,"internal_node_id":"0.0-2.0-0.204"},{"rt":null,"stimulus":"<div style=\"width:400px; height: 400px; border-radius: 400px; background-color: #0000ff;\"></div>","response":null,"color":"#0000ff","task":"circle","trial_type":"html-keyboard-response","trial_index":207,"time_elapsed":560146,"internal_node_id":"0.0-2.0-0.205"},{"rt":null,"stimulus":"<div style=\"width:400px; height: 400px; border-radius: 400px; background-color: #0000ff;\"></div>","response":null,"color":"#0000ff","task":"circle","trial_type":"html-keyboard-response","trial_index":208,"time_elapsed":560868,"internal_node_id":"0.0-2.0-0.206"},{"rt":null,"stimulus":"<div style=\"width:400px; height: 400px; border-radius: 400px; background-color: #ffaa00;\"></div>","response":null,"color":"#ffaa00","task":"circle","trial_type":"html-keyboard-response","trial_index":209,"time_elapsed":561592,"internal_node_id":"0.0-2.0-0.207"},{"rt":null,"stimulus":"<div style=\"width:400px; height: 400px; border-radius: 400px; background-color: #0000ff;\"></div>","response":null,"color":"#0000ff","task":"circle","trial_type":"html-keyboard-response","trial_index":210,"time_elapsed":562315,"internal_node_id":"0.0-2.0-0.208"},{"rt":null,"stimulus":"<div style=\"width:400px; height: 400px; border-radius: 400px; background-color: #0000ff;\"></div>","response":null,"color":"#0000ff","task":"circle","trial_type":"html-keyboard-response","trial_index":211,"time_elapsed":563042,"internal_node_id":"0.0-2.0-0.209"},{"rt":null,"stimulus":"<div style=\"width:400px; height: 400px; border-radius: 400px; background-color: #0000ff;\"></div>","response":null,"color":"#0000ff","task":"circle","trial_type":"html-keyboard-response","trial_index":212,"time_elapsed":563770,"internal_node_id":"0.0-2.0-0.210"},{"rt":null,"stimulus":"<div style=\"width:400px; height: 400px; border-radius: 400px; background-color: #0000ff;\"></div>","response":null,"color":"#0000ff","task":"circle","trial_type":"html-keyboard-response","trial_index":213,"time_elapsed":564493,"internal_node_id":"0.0-2.0-0.211"},{"rt":null,"stimulus":"<div style=\"width:400px; height: 400px; border-radius: 400px; background-color: #0000ff;\"></div>","response":null,"color":"#0000ff","task":"circle","trial_type":"html-keyboard-response","trial_index":214,"time_elapsed":565223,"internal_node_id":"0.0-2.0-0.212"},{"rt":null,"stimulus":"<div style=\"width:400px; height: 400px; border-radius: 400px; background-color: #ffaa00;\"></div>","response":null,"color":"#ffaa00","task":"circle","trial_type":"html-keyboard-response","trial_index":215,"time_elapsed":565948,"internal_node_id":"0.0-2.0-0.213"},{"rt":null,"stimulus":"<div style=\"width:400px; height: 400px; border-radius: 400px; background-color: #0000ff;\"></div>","response":null,"color":"#0000ff","task":"circle","trial_type":"html-keyboard-response","trial_index":216,"time_elapsed":566676,"internal_node_id":"0.0-2.0-0.214"},{"rt":null,"stimulus":"<div style=\"width:400px; height: 400px; border-radius: 400px; background-color: #0000ff;\"></div>","response":null,"color":"#0000ff","task":"circle","trial_type":"html-keyboard-response","trial_index":217,"time_elapsed":567401,"internal_node_id":"0.0-2.0-0.215"},{"rt":null,"stimulus":"<div style=\"width:400px; height: 400px; border-radius: 400px; background-color: #0000ff;\"></div>","response":null,"color":"#0000ff","task":"circle","trial_type":"html-keyboard-response","trial_index":218,"time_elapsed":568127,"internal_node_id":"0.0-2.0-0.216"},{"rt":null,"stimulus":"<div style=\"width:400px; height: 400px; border-radius: 400px; background-color: #8000ff;\"></div>","response":null,"color":"#8000ff","task":"circle","trial_type":"html-keyboard-response","trial_index":219,"time_elapsed":568856,"internal_node_id":"0.0-2.0-0.217"},{"rt":null,"stimulus":"<div style=\"width:400px; height: 400px; border-radius: 400px; background-color: #0000ff;\"></div>","response":null,"color":"#0000ff","task":"circle","trial_type":"html-keyboard-response","trial_index":220,"time_elapsed":569580,"internal_node_id":"0.0-2.0-0.218"},{"rt":null,"stimulus":"<div style=\"width:400px; height: 400px; border-radius: 400px; background-color: #0000ff;\"></div>","response":null,"color":"#0000ff","task":"circle","trial_type":"html-keyboard-response","trial_index":221,"time_elapsed":570304,"internal_node_id":"0.0-2.0-0.219"},{"rt":null,"stimulus":"<div style=\"width:400px; height: 400px; border-radius: 400px; background-color: #0000ff;\"></div>","response":null,"color":"#0000ff","task":"circle","trial_type":"html-keyboard-response","trial_index":222,"time_elapsed":571032,"internal_node_id":"0.0-2.0-0.220"},{"rt":null,"stimulus":"<div style=\"width:400px; height: 400px; border-radius: 400px; background-color: #0000ff;\"></div>","response":null,"color":"#0000ff","task":"circle","trial_type":"html-keyboard-response","trial_index":223,"time_elapsed":571757,"internal_node_id":"0.0-2.0-0.221"},{"rt":null,"stimulus":"<div style=\"width:400px; height: 400px; border-radius: 400px; background-color: #0000ff;\"></div>","response":null,"color":"#0000ff","task":"circle","trial_type":"html-keyboard-response","trial_index":224,"time_elapsed":572485,"internal_node_id":"0.0-2.0-0.222"},{"rt":null,"stimulus":"<div style=\"width:400px; height: 400px; border-radius: 400px; background-color: #0000ff;\"></div>","response":null,"color":"#0000ff","task":"circle","trial_type":"html-keyboard-response","trial_index":225,"time_elapsed":573215,"internal_node_id":"0.0-2.0-0.223"},{"rt":null,"stimulus":"<div style=\"width:400px; height: 400px; border-radius: 400px; background-color: #0000ff;\"></div>","response":null,"color":"#0000ff","task":"circle","trial_type":"html-keyboard-response","trial_index":226,"time_elapsed":573939,"internal_node_id":"0.0-2.0-0.224"},{"rt":null,"stimulus":"<div style=\"width:400px; height: 400px; border-radius: 400px; background-color: #0000ff;\"></div>","response":null,"color":"#0000ff","task":"circle","trial_type":"html-keyboard-response","trial_index":227,"time_elapsed":574666,"internal_node_id":"0.0-2.0-0.225"},{"rt":null,"stimulus":"<div style=\"width:400px; height: 400px; border-radius: 400px; background-color: #ffaa00;\"></div>","response":null,"color":"#ffaa00","task":"circle","trial_type":"html-keyboard-response","trial_index":228,"time_elapsed":575389,"internal_node_id":"0.0-2.0-0.226"},{"rt":null,"stimulus":"<div style=\"width:400px; height: 400px; border-radius: 400px; background-color: #0000ff;\"></div>","response":null,"color":"#0000ff","task":"circle","trial_type":"html-keyboard-response","trial_index":229,"time_elapsed":576116,"internal_node_id":"0.0-2.0-0.227"},{"rt":null,"stimulus":"<div style=\"width:400px; height: 400px; border-radius: 400px; background-color: #8000ff;\"></div>","response":null,"color":"#8000ff","task":"circle","trial_type":"html-keyboard-response","trial_index":230,"time_elapsed":576840,"internal_node_id":"0.0-2.0-0.228"},{"rt":null,"stimulus":"<div style=\"width:400px; height: 400px; border-radius: 400px; background-color: #0000ff;\"></div>","response":null,"color":"#0000ff","task":"circle","trial_type":"html-keyboard-response","trial_index":231,"time_elapsed":577556,"internal_node_id":"0.0-2.0-0.229"},{"rt":null,"stimulus":"<div style=\"width:400px; height: 400px; border-radius: 400px; background-color: #0000ff;\"></div>","response":null,"color":"#0000ff","task":"circle","trial_type":"html-keyboard-response","trial_index":232,"time_elapsed":578282,"internal_node_id":"0.0-2.0-0.230"},{"rt":null,"stimulus":"<div style=\"width:400px; height: 400px; border-radius: 400px; background-color: #0000ff;\"></div>","response":null,"color":"#0000ff","task":"circle","trial_type":"html-keyboard-response","trial_index":233,"time_elapsed":579007,"internal_node_id":"0.0-2.0-0.231"},{"rt":null,"stimulus":"<div style=\"width:400px; height: 400px; border-radius: 400px; background-color: #8000ff;\"></div>","response":null,"color":"#8000ff","task":"circle","trial_type":"html-keyboard-response","trial_index":234,"time_elapsed":579732,"internal_node_id":"0.0-2.0-0.232"},{"rt":null,"stimulus":"<div style=\"width:400px; height: 400px; border-radius: 400px; background-color: #0000ff;\"></div>","response":null,"color":"#0000ff","task":"circle","trial_type":"html-keyboard-response","trial_index":235,"time_elapsed":580457,"internal_node_id":"0.0-2.0-0.233"},{"rt":null,"stimulus":"<div style=\"width:400px; height: 400px; border-radius: 400px; background-color: #0000ff;\"></div>","response":null,"color":"#0000ff","task":"circle","trial_type":"html-keyboard-response","trial_index":236,"time_elapsed":581183,"internal_node_id":"0.0-2.0-0.234"},{"rt":null,"stimulus":"<div style=\"width:400px; height: 400px; border-radius: 400px; background-color: #0000ff;\"></div>","response":null,"color":"#0000ff","task":"circle","trial_type":"html-keyboard-response","trial_index":237,"time_elapsed":581911,"internal_node_id":"0.0-2.0-0.235"},{"rt":null,"stimulus":"<div style=\"width:400px; height: 400px; border-radius: 400px; background-color: #0000ff;\"></div>","response":null,"color":"#0000ff","task":"circle","trial_type":"html-keyboard-response","trial_index":238,"time_elapsed":582637,"internal_node_id":"0.0-2.0-0.236"},{"rt":null,"stimulus":"<div style=\"width:400px; height: 400px; border-radius: 400px; background-color: #ffaa00;\"></div>","response":null,"color":"#ffaa00","task":"circle","trial_type":"html-keyboard-response","trial_index":239,"time_elapsed":583359,"internal_node_id":"0.0-2.0-0.237"},{"rt":null,"stimulus":"<div style=\"width:400px; height: 400px; border-radius: 400px; background-color: #0000ff;\"></div>","response":null,"color":"#0000ff","task":"circle","trial_type":"html-keyboard-response","trial_index":240,"time_elapsed":584085,"internal_node_id":"0.0-2.0-0.238"},{"rt":null,"stimulus":"<div style=\"width:400px; height: 400px; border-radius: 400px; background-color: #0000ff;\"></div>","response":null,"color":"#0000ff","task":"circle","trial_type":"html-keyboard-response","trial_index":241,"time_elapsed":584811,"internal_node_id":"0.0-2.0-0.239"},{"rt":null,"stimulus":"<div style=\"width:400px; height: 400px; border-radius: 400px; background-color: #0000ff;\"></div>","response":null,"color":"#0000ff","task":"circle","trial_type":"html-keyboard-response","trial_index":242,"time_elapsed":585532,"internal_node_id":"0.0-2.0-0.240"},{"rt":null,"stimulus":"<div style=\"width:400px; height: 400px; border-radius: 400px; background-color: #0000ff;\"></div>","response":null,"color":"#0000ff","task":"circle","trial_type":"html-keyboard-response","trial_index":243,"time_elapsed":586258,"internal_node_id":"0.0-2.0-0.241"},{"rt":null,"stimulus":"<div style=\"width:400px; height: 400px; border-radius: 400px; background-color: #0000ff;\"></div>","response":null,"color":"#0000ff","task":"circle","trial_type":"html-keyboard-response","trial_index":244,"time_elapsed":586979,"internal_node_id":"0.0-2.0-0.242"},{"rt":null,"stimulus":"<div style=\"width:400px; height: 400px; border-radius: 400px; background-color: #0000ff;\"></div>","response":null,"color":"#0000ff","task":"circle","trial_type":"html-keyboard-response","trial_index":245,"time_elapsed":587700,"internal_node_id":"0.0-2.0-0.243"},{"rt":null,"stimulus":"<div style=\"width:400px; height: 400px; border-radius: 400px; background-color: #0000ff;\"></div>","response":null,"color":"#0000ff","task":"circle","trial_type":"html-keyboard-response","trial_index":246,"time_elapsed":588426,"internal_node_id":"0.0-2.0-0.244"},{"rt":null,"stimulus":"<div style=\"width:400px; height: 400px; border-radius: 400px; background-color: #8000ff;\"></div>","response":null,"color":"#8000ff","task":"circle","trial_type":"html-keyboard-response","trial_index":247,"time_elapsed":589150,"internal_node_id":"0.0-2.0-0.245"},{"rt":null,"stimulus":"<div style=\"width:400px; height: 400px; border-radius: 400px; background-color: #0000ff;\"></div>","response":null,"color":"#0000ff","task":"circle","trial_type":"html-keyboard-response","trial_index":248,"time_elapsed":589871,"internal_node_id":"0.0-2.0-0.246"},{"rt":null,"stimulus":"<div style=\"width:400px; height: 400px; border-radius: 400px; background-color: #ffaa00;\"></div>","response":null,"color":"#ffaa00","task":"circle","trial_type":"html-keyboard-response","trial_index":249,"time_elapsed":590596,"internal_node_id":"0.0-2.0-0.247"},{"rt":null,"stimulus":"<div style=\"width:400px; height: 400px; border-radius: 400px; background-color: #0000ff;\"></div>","response":null,"color":"#0000ff","task":"circle","trial_type":"html-keyboard-response","trial_index":250,"time_elapsed":591322,"internal_node_id":"0.0-2.0-0.248"},{"rt":null,"stimulus":"<div style=\"width:400px; height: 400px; border-radius: 400px; background-color: #0000ff;\"></div>","response":null,"color":"#0000ff","task":"circle","trial_type":"html-keyboard-response","trial_index":251,"time_elapsed":592046,"internal_node_id":"0.0-2.0-0.249"},{"rt":8136,"response":{"Q0":"51 "},"task":"count","trial_type":"survey-text","trial_index":252,"time_elapsed":600546,"internal_node_id":"0.0-3.0"},{"rt":4942,"stimulus":"<p>When you are ready for the next round, press the spacebar.</p>","response":" ","trial_type":"html-keyboard-response","trial_index":253,"time_elapsed":606495,"internal_node_id":"0.0-4.0"},{"rt":null,"stimulus":"<div style=\"width:400px; height: 400px; border-radius: 400px; background-color: #0000ff;\"></div>","response":null,"color":"#0000ff","task":"circle","trial_type":"html-keyboard-response","trial_index":254,"time_elapsed":606850,"internal_node_id":"0.0-5.0-0.0"},{"rt":null,"stimulus":"<div style=\"width:400px; height: 400px; border-radius: 400px; background-color: #ffaa00;\"></div>","response":null,"color":"#ffaa00","task":"circle","trial_type":"html-keyboard-response","trial_index":255,"time_elapsed":607575,"internal_node_id":"0.0-5.0-0.1"},{"rt":null,"stimulus":"<div style=\"width:400px; height: 400px; border-radius: 400px; background-color: #0000ff;\"></div>","response":null,"color":"#0000ff","task":"circle","trial_type":"html-keyboard-response","trial_index":256,"time_elapsed":608302,"internal_node_id":"0.0-5.0-0.2"},{"rt":null,"stimulus":"<div style=\"width:400px; height: 400px; border-radius: 400px; background-color: #0000ff;\"></div>","response":null,"color":"#0000ff","task":"circle","trial_type":"html-keyboard-response","trial_index":257,"time_elapsed":609028,"internal_node_id":"0.0-5.0-0.3"},{"rt":null,"stimulus":"<div style=\"width:400px; height: 400px; border-radius: 400px; background-color: #0000ff;\"></div>","response":null,"color":"#0000ff","task":"circle","trial_type":"html-keyboard-response","trial_index":258,"time_elapsed":609751,"internal_node_id":"0.0-5.0-0.4"},{"rt":null,"stimulus":"<div style=\"width:400px; height: 400px; border-radius: 400px; background-color: #0000ff;\"></div>","response":null,"color":"#0000ff","task":"circle","trial_type":"html-keyboard-response","trial_index":259,"time_elapsed":610477,"internal_node_id":"0.0-5.0-0.5"},{"rt":null,"stimulus":"<div style=\"width:400px; height: 400px; border-radius: 400px; background-color: #0000ff;\"></div>","response":null,"color":"#0000ff","task":"circle","trial_type":"html-keyboard-response","trial_index":260,"time_elapsed":611203,"internal_node_id":"0.0-5.0-0.6"},{"rt":null,"stimulus":"<div style=\"width:400px; height: 400px; border-radius: 400px; background-color: #0000ff;\"></div>","response":null,"color":"#0000ff","task":"circle","trial_type":"html-keyboard-response","trial_index":261,"time_elapsed":611928,"internal_node_id":"0.0-5.0-0.7"},{"rt":null,"stimulus":"<div style=\"width:400px; height: 400px; border-radius: 400px; background-color: #0000ff;\"></div>","response":null,"color":"#0000ff","task":"circle","trial_type":"html-keyboard-response","trial_index":262,"time_elapsed":612654,"internal_node_id":"0.0-5.0-0.8"},{"rt":null,"stimulus":"<div style=\"width:400px; height: 400px; border-radius: 400px; background-color: #8000ff;\"></div>","response":null,"color":"#8000ff","task":"circle","trial_type":"html-keyboard-response","trial_index":263,"time_elapsed":613378,"internal_node_id":"0.0-5.0-0.9"},{"rt":null,"stimulus":"<div style=\"width:400px; height: 400px; border-radius: 400px; background-color: #0000ff;\"></div>","response":null,"color":"#0000ff","task":"circle","trial_type":"html-keyboard-response","trial_index":264,"time_elapsed":614106,"internal_node_id":"0.0-5.0-0.10"},{"rt":null,"stimulus":"<div style=\"width:400px; height: 400px; border-radius: 400px; background-color: #ffaa00;\"></div>","response":null,"color":"#ffaa00","task":"circle","trial_type":"html-keyboard-response","trial_index":265,"time_elapsed":614829,"internal_node_id":"0.0-5.0-0.11"},{"rt":null,"stimulus":"<div style=\"width:400px; height: 400px; border-radius: 400px; background-color: #0000ff;\"></div>","response":null,"color":"#0000ff","task":"circle","trial_type":"html-keyboard-response","trial_index":266,"time_elapsed":615556,"internal_node_id":"0.0-5.0-0.12"},{"rt":null,"stimulus":"<div style=\"width:400px; height: 400px; border-radius: 400px; background-color: #0000ff;\"></div>","response":null,"color":"#0000ff","task":"circle","trial_type":"html-keyboard-response","trial_index":267,"time_elapsed":616284,"internal_node_id":"0.0-5.0-0.13"},{"rt":null,"stimulus":"<div style=\"width:400px; height: 400px; border-radius: 400px; background-color: #0000ff;\"></div>","response":null,"color":"#0000ff","task":"circle","trial_type":"html-keyboard-response","trial_index":268,"time_elapsed":617009,"internal_node_id":"0.0-5.0-0.14"},{"rt":null,"stimulus":"<div style=\"width:400px; height: 400px; border-radius: 400px; background-color: #0000ff;\"></div>","response":null,"color":"#0000ff","task":"circle","trial_type":"html-keyboard-response","trial_index":269,"time_elapsed":617733,"internal_node_id":"0.0-5.0-0.15"},{"rt":null,"stimulus":"<div style=\"width:400px; height: 400px; border-radius: 400px; background-color: #8000ff;\"></div>","response":null,"color":"#8000ff","task":"circle","trial_type":"html-keyboard-response","trial_index":270,"time_elapsed":618460,"internal_node_id":"0.0-5.0-0.16"},{"rt":null,"stimulus":"<div style=\"width:400px; height: 400px; border-radius: 400px; background-color: #0000ff;\"></div>","response":null,"color":"#0000ff","task":"circle","trial_type":"html-keyboard-response","trial_index":271,"time_elapsed":619182,"internal_node_id":"0.0-5.0-0.17"},{"rt":null,"stimulus":"<div style=\"width:400px; height: 400px; border-radius: 400px; background-color: #0000ff;\"></div>","response":null,"color":"#0000ff","task":"circle","trial_type":"html-keyboard-response","trial_index":272,"time_elapsed":619905,"internal_node_id":"0.0-5.0-0.18"},{"rt":null,"stimulus":"<div style=\"width:400px; height: 400px; border-radius: 400px; background-color: #0000ff;\"></div>","response":null,"color":"#0000ff","task":"circle","trial_type":"html-keyboard-response","trial_index":273,"time_elapsed":620633,"internal_node_id":"0.0-5.0-0.19"},{"rt":null,"stimulus":"<div style=\"width:400px; height: 400px; border-radius: 400px; background-color: #0000ff;\"></div>","response":null,"color":"#0000ff","task":"circle","trial_type":"html-keyboard-response","trial_index":274,"time_elapsed":621362,"internal_node_id":"0.0-5.0-0.20"},{"rt":null,"stimulus":"<div style=\"width:400px; height: 400px; border-radius: 400px; background-color: #0000ff;\"></div>","response":null,"color":"#0000ff","task":"circle","trial_type":"html-keyboard-response","trial_index":275,"time_elapsed":622090,"internal_node_id":"0.0-5.0-0.21"},{"rt":null,"stimulus":"<div style=\"width:400px; height: 400px; border-radius: 400px; background-color: #0000ff;\"></div>","response":null,"color":"#0000ff","task":"circle","trial_type":"html-keyboard-response","trial_index":276,"time_elapsed":622817,"internal_node_id":"0.0-5.0-0.22"},{"rt":null,"stimulus":"<div style=\"width:400px; height: 400px; border-radius: 400px; background-color: #0000ff;\"></div>","response":null,"color":"#0000ff","task":"circle","trial_type":"html-keyboard-response","trial_index":277,"time_elapsed":623530,"internal_node_id":"0.0-5.0-0.23"},{"rt":null,"stimulus":"<div style=\"width:400px; height: 400px; border-radius: 400px; background-color: #0000ff;\"></div>","response":null,"color":"#0000ff","task":"circle","trial_type":"html-keyboard-response","trial_index":278,"time_elapsed":624252,"internal_node_id":"0.0-5.0-0.24"},{"rt":null,"stimulus":"<div style=\"width:400px; height: 400px; border-radius: 400px; background-color: #0000ff;\"></div>","response":null,"color":"#0000ff","task":"circle","trial_type":"html-keyboard-response","trial_index":279,"time_elapsed":624980,"internal_node_id":"0.0-5.0-0.25"},{"rt":null,"stimulus":"<div style=\"width:400px; height: 400px; border-radius: 400px; background-color: #ffaa00;\"></div>","response":null,"color":"#ffaa00","task":"circle","trial_type":"html-keyboard-response","trial_index":280,"time_elapsed":625708,"internal_node_id":"0.0-5.0-0.26"},{"rt":null,"stimulus":"<div style=\"width:400px; height: 400px; border-radius: 400px; background-color: #0000ff;\"></div>","response":null,"color":"#0000ff","task":"circle","trial_type":"html-keyboard-response","trial_index":281,"time_elapsed":626437,"internal_node_id":"0.0-5.0-0.27"},{"rt":null,"stimulus":"<div style=\"width:400px; height: 400px; border-radius: 400px; background-color: #0000ff;\"></div>","response":null,"color":"#0000ff","task":"circle","trial_type":"html-keyboard-response","trial_index":282,"time_elapsed":627161,"internal_node_id":"0.0-5.0-0.28"},{"rt":null,"stimulus":"<div style=\"width:400px; height: 400px; border-radius: 400px; background-color: #8000ff;\"></div>","response":null,"color":"#8000ff","task":"circle","trial_type":"html-keyboard-response","trial_index":283,"time_elapsed":627890,"internal_node_id":"0.0-5.0-0.29"},{"rt":null,"stimulus":"<div style=\"width:400px; height: 400px; border-radius: 400px; background-color: #8000ff;\"></div>","response":null,"color":"#8000ff","task":"circle","trial_type":"html-keyboard-response","trial_index":284,"time_elapsed":628615,"internal_node_id":"0.0-5.0-0.30"},{"rt":null,"stimulus":"<div style=\"width:400px; height: 400px; border-radius: 400px; background-color: #0000ff;\"></div>","response":null,"color":"#0000ff","task":"circle","trial_type":"html-keyboard-response","trial_index":285,"time_elapsed":629340,"internal_node_id":"0.0-5.0-0.31"},{"rt":null,"stimulus":"<div style=\"width:400px; height: 400px; border-radius: 400px; background-color: #0000ff;\"></div>","response":null,"color":"#0000ff","task":"circle","trial_type":"html-keyboard-response","trial_index":286,"time_elapsed":630067,"internal_node_id":"0.0-5.0-0.32"},{"rt":null,"stimulus":"<div style=\"width:400px; height: 400px; border-radius: 400px; background-color: #0000ff;\"></div>","response":null,"color":"#0000ff","task":"circle","trial_type":"html-keyboard-response","trial_index":287,"time_elapsed":630790,"internal_node_id":"0.0-5.0-0.33"},{"rt":null,"stimulus":"<div style=\"width:400px; height: 400px; border-radius: 400px; background-color: #ffaa00;\"></div>","response":null,"color":"#ffaa00","task":"circle","trial_type":"html-keyboard-response","trial_index":288,"time_elapsed":631517,"internal_node_id":"0.0-5.0-0.34"},{"rt":null,"stimulus":"<div style=\"width:400px; height: 400px; border-radius: 400px; background-color: #0000ff;\"></div>","response":null,"color":"#0000ff","task":"circle","trial_type":"html-keyboard-response","trial_index":289,"time_elapsed":632241,"internal_node_id":"0.0-5.0-0.35"},{"rt":null,"stimulus":"<div style=\"width:400px; height: 400px; border-radius: 400px; background-color: #0000ff;\"></div>","response":null,"color":"#0000ff","task":"circle","trial_type":"html-keyboard-response","trial_index":290,"time_elapsed":632965,"internal_node_id":"0.0-5.0-0.36"},{"rt":null,"stimulus":"<div style=\"width:400px; height: 400px; border-radius: 400px; background-color: #0000ff;\"></div>","response":null,"color":"#0000ff","task":"circle","trial_type":"html-keyboard-response","trial_index":291,"time_elapsed":633691,"internal_node_id":"0.0-5.0-0.37"},{"rt":null,"stimulus":"<div style=\"width:400px; height: 400px; border-radius: 400px; background-color: #0000ff;\"></div>","response":null,"color":"#0000ff","task":"circle","trial_type":"html-keyboard-response","trial_index":292,"time_elapsed":634416,"internal_node_id":"0.0-5.0-0.38"},{"rt":null,"stimulus":"<div style=\"width:400px; height: 400px; border-radius: 400px; background-color: #0000ff;\"></div>","response":null,"color":"#0000ff","task":"circle","trial_type":"html-keyboard-response","trial_index":293,"time_elapsed":635128,"internal_node_id":"0.0-5.0-0.39"},{"rt":null,"stimulus":"<div style=\"width:400px; height: 400px; border-radius: 400px; background-color: #0000ff;\"></div>","response":null,"color":"#0000ff","task":"circle","trial_type":"html-keyboard-response","trial_index":294,"time_elapsed":635857,"internal_node_id":"0.0-5.0-0.40"},{"rt":null,"stimulus":"<div style=\"width:400px; height: 400px; border-radius: 400px; background-color: #0000ff;\"></div>","response":null,"color":"#0000ff","task":"circle","trial_type":"html-keyboard-response","trial_index":295,"time_elapsed":636583,"internal_node_id":"0.0-5.0-0.41"},{"rt":null,"stimulus":"<div style=\"width:400px; height: 400px; border-radius: 400px; background-color: #0000ff;\"></div>","response":null,"color":"#0000ff","task":"circle","trial_type":"html-keyboard-response","trial_index":296,"time_elapsed":637308,"internal_node_id":"0.0-5.0-0.42"},{"rt":null,"stimulus":"<div style=\"width:400px; height: 400px; border-radius: 400px; background-color: #0000ff;\"></div>","response":null,"color":"#0000ff","task":"circle","trial_type":"html-keyboard-response","trial_index":297,"time_elapsed":638033,"internal_node_id":"0.0-5.0-0.43"},{"rt":null,"stimulus":"<div style=\"width:400px; height: 400px; border-radius: 400px; background-color: #0000ff;\"></div>","response":null,"color":"#0000ff","task":"circle","trial_type":"html-keyboard-response","trial_index":298,"time_elapsed":638756,"internal_node_id":"0.0-5.0-0.44"},{"rt":null,"stimulus":"<div style=\"width:400px; height: 400px; border-radius: 400px; background-color: #0000ff;\"></div>","response":null,"color":"#0000ff","task":"circle","trial_type":"html-keyboard-response","trial_index":299,"time_elapsed":639481,"internal_node_id":"0.0-5.0-0.45"},{"rt":null,"stimulus":"<div style=\"width:400px; height: 400px; border-radius: 400px; background-color: #0000ff;\"></div>","response":null,"color":"#0000ff","task":"circle","trial_type":"html-keyboard-response","trial_index":300,"time_elapsed":640202,"internal_node_id":"0.0-5.0-0.46"},{"rt":null,"stimulus":"<div style=\"width:400px; height: 400px; border-radius: 400px; background-color: #8000ff;\"></div>","response":null,"color":"#8000ff","task":"circle","trial_type":"html-keyboard-response","trial_index":301,"time_elapsed":640926,"internal_node_id":"0.0-5.0-0.47"},{"rt":null,"stimulus":"<div style=\"width:400px; height: 400px; border-radius: 400px; background-color: #0000ff;\"></div>","response":null,"color":"#0000ff","task":"circle","trial_type":"html-keyboard-response","trial_index":302,"time_elapsed":641655,"internal_node_id":"0.0-5.0-0.48"},{"rt":null,"stimulus":"<div style=\"width:400px; height: 400px; border-radius: 400px; background-color: #ffaa00;\"></div>","response":null,"color":"#ffaa00","task":"circle","trial_type":"html-keyboard-response","trial_index":303,"time_elapsed":642379,"internal_node_id":"0.0-5.0-0.49"},{"rt":null,"stimulus":"<div style=\"width:400px; height: 400px; border-radius: 400px; background-color: #0000ff;\"></div>","response":null,"color":"#0000ff","task":"circle","trial_type":"html-keyboard-response","trial_index":304,"time_elapsed":643107,"internal_node_id":"0.0-5.0-0.50"},{"rt":null,"stimulus":"<div style=\"width:400px; height: 400px; border-radius: 400px; background-color: #0000ff;\"></div>","response":null,"color":"#0000ff","task":"circle","trial_type":"html-keyboard-response","trial_index":305,"time_elapsed":643835,"internal_node_id":"0.0-5.0-0.51"},{"rt":null,"stimulus":"<div style=\"width:400px; height: 400px; border-radius: 400px; background-color: #0000ff;\"></div>","response":null,"color":"#0000ff","task":"circle","trial_type":"html-keyboard-response","trial_index":306,"time_elapsed":644556,"internal_node_id":"0.0-5.0-0.52"},{"rt":null,"stimulus":"<div style=\"width:400px; height: 400px; border-radius: 400px; background-color: #0000ff;\"></div>","response":null,"color":"#0000ff","task":"circle","trial_type":"html-keyboard-response","trial_index":307,"time_elapsed":645279,"internal_node_id":"0.0-5.0-0.53"},{"rt":null,"stimulus":"<div style=\"width:400px; height: 400px; border-radius: 400px; background-color: #0000ff;\"></div>","response":null,"color":"#0000ff","task":"circle","trial_type":"html-keyboard-response","trial_index":308,"time_elapsed":646001,"internal_node_id":"0.0-5.0-0.54"},{"rt":null,"stimulus":"<div style=\"width:400px; height: 400px; border-radius: 400px; background-color: #ffaa00;\"></div>","response":null,"color":"#ffaa00","task":"circle","trial_type":"html-keyboard-response","trial_index":309,"time_elapsed":646725,"internal_node_id":"0.0-5.0-0.55"},{"rt":null,"stimulus":"<div style=\"width:400px; height: 400px; border-radius: 400px; background-color: #0000ff;\"></div>","response":null,"color":"#0000ff","task":"circle","trial_type":"html-keyboard-response","trial_index":310,"time_elapsed":647452,"internal_node_id":"0.0-5.0-0.56"},{"rt":null,"stimulus":"<div style=\"width:400px; height: 400px; border-radius: 400px; background-color: #0000ff;\"></div>","response":null,"color":"#0000ff","task":"circle","trial_type":"html-keyboard-response","trial_index":311,"time_elapsed":648177,"internal_node_id":"0.0-5.0-0.57"},{"rt":null,"stimulus":"<div style=\"width:400px; height: 400px; border-radius: 400px; background-color: #0000ff;\"></div>","response":null,"color":"#0000ff","task":"circle","trial_type":"html-keyboard-response","trial_index":312,"time_elapsed":648905,"internal_node_id":"0.0-5.0-0.58"},{"rt":null,"stimulus":"<div style=\"width:400px; height: 400px; border-radius: 400px; background-color: #8000ff;\"></div>","response":null,"color":"#8000ff","task":"circle","trial_type":"html-keyboard-response","trial_index":313,"time_elapsed":649633,"internal_node_id":"0.0-5.0-0.59"},{"rt":null,"stimulus":"<div style=\"width:400px; height: 400px; border-radius: 400px; background-color: #ffaa00;\"></div>","response":null,"color":"#ffaa00","task":"circle","trial_type":"html-keyboard-response","trial_index":314,"time_elapsed":650360,"internal_node_id":"0.0-5.0-0.60"},{"rt":null,"stimulus":"<div style=\"width:400px; height: 400px; border-radius: 400px; background-color: #0000ff;\"></div>","response":null,"color":"#0000ff","task":"circle","trial_type":"html-keyboard-response","trial_index":315,"time_elapsed":651083,"internal_node_id":"0.0-5.0-0.61"},{"rt":null,"stimulus":"<div style=\"width:400px; height: 400px; border-radius: 400px; background-color: #0000ff;\"></div>","response":null,"color":"#0000ff","task":"circle","trial_type":"html-keyboard-response","trial_index":316,"time_elapsed":651812,"internal_node_id":"0.0-5.0-0.62"},{"rt":null,"stimulus":"<div style=\"width:400px; height: 400px; border-radius: 400px; background-color: #8000ff;\"></div>","response":null,"color":"#8000ff","task":"circle","trial_type":"html-keyboard-response","trial_index":317,"time_elapsed":652541,"internal_node_id":"0.0-5.0-0.63"},{"rt":null,"stimulus":"<div style=\"width:400px; height: 400px; border-radius: 400px; background-color: #0000ff;\"></div>","response":null,"color":"#0000ff","task":"circle","trial_type":"html-keyboard-response","trial_index":318,"time_elapsed":653265,"internal_node_id":"0.0-5.0-0.64"},{"rt":null,"stimulus":"<div style=\"width:400px; height: 400px; border-radius: 400px; background-color: #0000ff;\"></div>","response":null,"color":"#0000ff","task":"circle","trial_type":"html-keyboard-response","trial_index":319,"time_elapsed":653986,"internal_node_id":"0.0-5.0-0.65"},{"rt":null,"stimulus":"<div style=\"width:400px; height: 400px; border-radius: 400px; background-color: #0000ff;\"></div>","response":null,"color":"#0000ff","task":"circle","trial_type":"html-keyboard-response","trial_index":320,"time_elapsed":654716,"internal_node_id":"0.0-5.0-0.66"},{"rt":null,"stimulus":"<div style=\"width:400px; height: 400px; border-radius: 400px; background-color: #0000ff;\"></div>","response":null,"color":"#0000ff","task":"circle","trial_type":"html-keyboard-response","trial_index":321,"time_elapsed":655441,"internal_node_id":"0.0-5.0-0.67"},{"rt":null,"stimulus":"<div style=\"width:400px; height: 400px; border-radius: 400px; background-color: #0000ff;\"></div>","response":null,"color":"#0000ff","task":"circle","trial_type":"html-keyboard-response","trial_index":322,"time_elapsed":656169,"internal_node_id":"0.0-5.0-0.68"},{"rt":null,"stimulus":"<div style=\"width:400px; height: 400px; border-radius: 400px; background-color: #0000ff;\"></div>","response":null,"color":"#0000ff","task":"circle","trial_type":"html-keyboard-response","trial_index":323,"time_elapsed":656895,"internal_node_id":"0.0-5.0-0.69"},{"rt":null,"stimulus":"<div style=\"width:400px; height: 400px; border-radius: 400px; background-color: #0000ff;\"></div>","response":null,"color":"#0000ff","task":"circle","trial_type":"html-keyboard-response","trial_index":324,"time_elapsed":657623,"internal_node_id":"0.0-5.0-0.70"},{"rt":null,"stimulus":"<div style=\"width:400px; height: 400px; border-radius: 400px; background-color: #0000ff;\"></div>","response":null,"color":"#0000ff","task":"circle","trial_type":"html-keyboard-response","trial_index":325,"time_elapsed":658351,"internal_node_id":"0.0-5.0-0.71"},{"rt":null,"stimulus":"<div style=\"width:400px; height: 400px; border-radius: 400px; background-color: #0000ff;\"></div>","response":null,"color":"#0000ff","task":"circle","trial_type":"html-keyboard-response","trial_index":326,"time_elapsed":659076,"internal_node_id":"0.0-5.0-0.72"},{"rt":null,"stimulus":"<div style=\"width:400px; height: 400px; border-radius: 400px; background-color: #8000ff;\"></div>","response":null,"color":"#8000ff","task":"circle","trial_type":"html-keyboard-response","trial_index":327,"time_elapsed":659798,"internal_node_id":"0.0-5.0-0.73"},{"rt":null,"stimulus":"<div style=\"width:400px; height: 400px; border-radius: 400px; background-color: #ffaa00;\"></div>","response":null,"color":"#ffaa00","task":"circle","trial_type":"html-keyboard-response","trial_index":328,"time_elapsed":660522,"internal_node_id":"0.0-5.0-0.74"},{"rt":null,"stimulus":"<div style=\"width:400px; height: 400px; border-radius: 400px; background-color: #0000ff;\"></div>","response":null,"color":"#0000ff","task":"circle","trial_type":"html-keyboard-response","trial_index":329,"time_elapsed":661246,"internal_node_id":"0.0-5.0-0.75"},{"rt":null,"stimulus":"<div style=\"width:400px; height: 400px; border-radius: 400px; background-color: #0000ff;\"></div>","response":null,"color":"#0000ff","task":"circle","trial_type":"html-keyboard-response","trial_index":330,"time_elapsed":661972,"internal_node_id":"0.0-5.0-0.76"},{"rt":null,"stimulus":"<div style=\"width:400px; height: 400px; border-radius: 400px; background-color: #0000ff;\"></div>","response":null,"color":"#0000ff","task":"circle","trial_type":"html-keyboard-response","trial_index":331,"time_elapsed":662693,"internal_node_id":"0.0-5.0-0.77"},{"rt":null,"stimulus":"<div style=\"width:400px; height: 400px; border-radius: 400px; background-color: #0000ff;\"></div>","response":null,"color":"#0000ff","task":"circle","trial_type":"html-keyboard-response","trial_index":332,"time_elapsed":663416,"internal_node_id":"0.0-5.0-0.78"},{"rt":null,"stimulus":"<div style=\"width:400px; height: 400px; border-radius: 400px; background-color: #0000ff;\"></div>","response":null,"color":"#0000ff","task":"circle","trial_type":"html-keyboard-response","trial_index":333,"time_elapsed":664141,"internal_node_id":"0.0-5.0-0.79"},{"rt":null,"stimulus":"<div style=\"width:400px; height: 400px; border-radius: 400px; background-color: #ffaa00;\"></div>","response":null,"color":"#ffaa00","task":"circle","trial_type":"html-keyboard-response","trial_index":334,"time_elapsed":664865,"internal_node_id":"0.0-5.0-0.80"},{"rt":null,"stimulus":"<div style=\"width:400px; height: 400px; border-radius: 400px; background-color: #0000ff;\"></div>","response":null,"color":"#0000ff","task":"circle","trial_type":"html-keyboard-response","trial_index":335,"time_elapsed":665590,"internal_node_id":"0.0-5.0-0.81"},{"rt":null,"stimulus":"<div style=\"width:400px; height: 400px; border-radius: 400px; background-color: #0000ff;\"></div>","response":null,"color":"#0000ff","task":"circle","trial_type":"html-keyboard-response","trial_index":336,"time_elapsed":666318,"internal_node_id":"0.0-5.0-0.82"},{"rt":null,"stimulus":"<div style=\"width:400px; height: 400px; border-radius: 400px; background-color: #0000ff;\"></div>","response":null,"color":"#0000ff","task":"circle","trial_type":"html-keyboard-response","trial_index":337,"time_elapsed":667040,"internal_node_id":"0.0-5.0-0.83"},{"rt":null,"stimulus":"<div style=\"width:400px; height: 400px; border-radius: 400px; background-color: #0000ff;\"></div>","response":null,"color":"#0000ff","task":"circle","trial_type":"html-keyboard-response","trial_index":338,"time_elapsed":667763,"internal_node_id":"0.0-5.0-0.84"},{"rt":null,"stimulus":"<div style=\"width:400px; height: 400px; border-radius: 400px; background-color: #0000ff;\"></div>","response":null,"color":"#0000ff","task":"circle","trial_type":"html-keyboard-response","trial_index":339,"time_elapsed":668486,"internal_node_id":"0.0-5.0-0.85"},{"rt":null,"stimulus":"<div style=\"width:400px; height: 400px; border-radius: 400px; background-color: #0000ff;\"></div>","response":null,"color":"#0000ff","task":"circle","trial_type":"html-keyboard-response","trial_index":340,"time_elapsed":669211,"internal_node_id":"0.0-5.0-0.86"},{"rt":null,"stimulus":"<div style=\"width:400px; height: 400px; border-radius: 400px; background-color: #0000ff;\"></div>","response":null,"color":"#0000ff","task":"circle","trial_type":"html-keyboard-response","trial_index":341,"time_elapsed":669938,"internal_node_id":"0.0-5.0-0.87"},{"rt":null,"stimulus":"<div style=\"width:400px; height: 400px; border-radius: 400px; background-color: #0000ff;\"></div>","response":null,"color":"#0000ff","task":"circle","trial_type":"html-keyboard-response","trial_index":342,"time_elapsed":670663,"internal_node_id":"0.0-5.0-0.88"},{"rt":null,"stimulus":"<div style=\"width:400px; height: 400px; border-radius: 400px; background-color: #8000ff;\"></div>","response":null,"color":"#8000ff","task":"circle","trial_type":"html-keyboard-response","trial_index":343,"time_elapsed":671392,"internal_node_id":"0.0-5.0-0.89"},{"rt":null,"stimulus":"<div style=\"width:400px; height: 400px; border-radius: 400px; background-color: #8000ff;\"></div>","response":null,"color":"#8000ff","task":"circle","trial_type":"html-keyboard-response","trial_index":344,"time_elapsed":672118,"internal_node_id":"0.0-5.0-0.90"},{"rt":null,"stimulus":"<div style=\"width:400px; height: 400px; border-radius: 400px; background-color: #0000ff;\"></div>","response":null,"color":"#0000ff","task":"circle","trial_type":"html-keyboard-response","trial_index":345,"time_elapsed":672844,"internal_node_id":"0.0-5.0-0.91"},{"rt":null,"stimulus":"<div style=\"width:400px; height: 400px; border-radius: 400px; background-color: #0000ff;\"></div>","response":null,"color":"#0000ff","task":"circle","trial_type":"html-keyboard-response","trial_index":346,"time_elapsed":673568,"internal_node_id":"0.0-5.0-0.92"},{"rt":null,"stimulus":"<div style=\"width:400px; height: 400px; border-radius: 400px; background-color: #ffaa00;\"></div>","response":null,"color":"#ffaa00","task":"circle","trial_type":"html-keyboard-response","trial_index":347,"time_elapsed":674296,"internal_node_id":"0.0-5.0-0.93"},{"rt":null,"stimulus":"<div style=\"width:400px; height: 400px; border-radius: 400px; background-color: #0000ff;\"></div>","response":null,"color":"#0000ff","task":"circle","trial_type":"html-keyboard-response","trial_index":348,"time_elapsed":675018,"internal_node_id":"0.0-5.0-0.94"},{"rt":null,"stimulus